EXPLAIN
TAG	CORPOT
TITLE	LABEL	Open Circuit Potential	Test &Identifier
DATE	LABEL	2019-10-17	Date
TIME	LABEL	0:25:56	Time
NOTES	NOTES	1	&Notes...
	
PSTAT	PSTAT	REF3000-13111	Potentiostat
TIMEOUT	QUANT	9.00000E+004	Total &Time (s)
SAMPLETIME	QUANT	1.00000E+000	Sa&mple Period (s)
STABILITY	QUANT	0.00000E+000	Sta&bility (mV/s)
PSTATMODEL	IQUANT	5	Pstat Model
PSTATSECTION	LABEL	REF3000-13111	Pstat Section
PSTATSERIALNO	LABEL	13111	Pstat Serial Number
CTRLMODE	IQUANT	1	Control Mode
IESTAB	IQUANT	2	I/E Stability
CASPEED	IQUANT	2	Control Amp Speed
CONVENTION	IQUANT	1	Current Convention
ICHRANGE	IQUANT	2	Ich Range
ICHRANGEMODE	TOGGLE	T	Ich Auto Range
ICHOFFSETENABLE	TOGGLE	F	Ich Offset Enable
ICHOFFSET	QUANT	0	Ich Offset (V)
ICHFILTER	IQUANT	3	Ich Filter
VCHRANGE	IQUANT	3	Vch Range
VCHRANGEMODE	TOGGLE	T	Vch Auto Range
VCHOFFSETENABLE	TOGGLE	F	Vch Offset Enable
VCHOFFSET	QUANT	0	Vch Offset (V)
VCHFILTER	IQUANT	3	Vch Filter
ACHRANGE	IQUANT	2	Ach Range
ACHOFFSETENABLE	TOGGLE	F	Ach Offset Enable
ACHOFFSET	QUANT	0	Ach Offset (V)
ACHFILTER	IQUANT	3	Ach Filter
IERANGELOWERLIMIT	IQUANT	2	I/E Range Lower Limit
IERANGEMODE	TOGGLE	T	I/E AutoRange
IERANGE	IQUANT	11	I/E Range
POSFEEDENABLE	TOGGLE	F	Positive Feedback IR Comp
POSFEEDRESISTANCE	QUANT	0	Positive Feedback Resistance (ohm)
ACHSELECT	IQUANT	0	Ach Select
CABLEID	IQUANT	14	Cable ID
DCCALDATE	LABEL	2019-10-1	DC Calibration Date
ACCALDATE	LABEL	2019-10-1	AC Calibration Date
THERMOSELECT	IQUANT	1	Thermo Select
FRAMEWORKVERSION	QUANT	6.33	Framework Version
INSTRUMENTVERSION	LABEL	3.50	Instrument Version
COMPLIANCEVOLTAGE	IQUANT	0	Compliance Voltage
CURVE	TABLE	1600
	Pt	T	Vf	Vm	Ach	Over
	#	s	V vs. Ref.	V	V	bits
	0	1.00833	1.05664E+000	1.05664E+000	7.65913E-004	...........
	1	2.01667	1.05661E+000	1.05491E+000	7.63730E-004	...........
	2	3.025	1.05646E+000	1.05616E+000	7.65672E-004	...........
	3	4.03333	1.05621E+000	1.05666E+000	7.59713E-004	...........
	4	5.04167	1.05607E+000	1.05711E+000	7.62880E-004	...........
	5	6.05	1.05618E+000	1.05680E+000	7.62947E-004	...........
	6	7.05833	1.05645E+000	1.05657E+000	7.71005E-004	...........
	7	8.06667	1.05669E+000	1.05762E+000	7.66338E-004	...........
	8	9.075	1.05687E+000	1.05796E+000	7.63580E-004	...........
	9	10.0833	1.05712E+000	1.05940E+000	7.69105E-004	...........
	10	11.0917	1.05750E+000	1.05595E+000	7.69880E-004	...........
	11	12.1	1.05776E+000	1.05599E+000	7.71305E-004	...........
	12	13.1083	1.05760E+000	1.05653E+000	7.60588E-004	...........
	13	14.1167	1.05711E+000	1.05657E+000	7.58347E-004	...........
	14	15.125	1.05668E+000	1.05690E+000	7.64255E-004	...........
	15	16.1333	1.05651E+000	1.05666E+000	7.66147E-004	...........
	16	17.1417	1.05655E+000	1.05647E+000	7.66438E-004	...........
	17	18.15	1.05662E+000	1.05693E+000	7.64530E-004	...........
	18	19.1583	1.05665E+000	1.05598E+000	7.59380E-004	...........
	19	20.1667	1.05661E+000	1.05593E+000	7.75247E-004	...........
	20	21.175	1.05649E+000	1.05661E+000	7.68113E-004	...........
	21	22.1833	1.05635E+000	1.05674E+000	7.59663E-004	...........
	22	23.1917	1.05633E+000	1.05702E+000	7.64522E-004	...........
	23	24.2	1.05647E+000	1.05723E+000	7.67747E-004	...........
	24	25.2083	1.05669E+000	1.05673E+000	7.66980E-004	...........
	25	26.2167	1.05688E+000	1.05727E+000	7.69588E-004	...........
	26	27.225	1.05699E+000	1.05731E+000	7.70913E-004	...........
	27	28.2333	1.05706E+000	1.05667E+000	7.66688E-004	...........
	28	29.2417	1.05710E+000	1.05735E+000	7.60380E-004	...........
	29	30.25	1.05710E+000	1.05758E+000	7.71563E-004	...........
	30	31.2583	1.05716E+000	1.05803E+000	7.67388E-004	...........
	31	32.2667	1.05733E+000	1.05872E+000	7.62030E-004	...........
	32	33.275	1.05761E+000	1.05715E+000	7.65463E-004	...........
	33	34.2833	1.05785E+000	1.05768E+000	7.70722E-004	...........
	34	35.2917	1.05789E+000	1.05689E+000	7.56889E-004	...........
	35	36.3	1.05770E+000	1.05578E+000	7.65005E-004	...........
	36	37.3083	1.05731E+000	1.05585E+000	7.64488E-004	...........
	37	38.3167	1.05682E+000	1.05625E+000	7.63930E-004	...........
	38	39.325	1.05639E+000	1.05659E+000	7.66647E-004	...........
	39	40.3333	1.05620E+000	1.05652E+000	7.67255E-004	...........
	40	41.3417	1.05623E+000	1.05649E+000	7.65680E-004	...........
	41	42.35	1.05634E+000	1.05590E+000	7.66613E-004	...........
	42	43.3583	1.05639E+000	1.05657E+000	7.63605E-004	...........
	43	44.3667	1.05637E+000	1.05635E+000	7.66713E-004	...........
	44	45.375	1.05632E+000	1.05525E+000	7.68130E-004	...........
	45	46.3833	1.05621E+000	1.05535E+000	7.60513E-004	...........
	46	47.3917	1.05600E+000	1.05591E+000	7.71538E-004	...........
	47	48.4	1.05578E+000	1.05586E+000	7.70580E-004	...........
	48	49.4083	1.05569E+000	1.05636E+000	7.75472E-004	...........
	49	50.4167	1.05577E+000	1.05669E+000	7.65938E-004	...........
	50	51.425	1.05599E+000	1.05655E+000	7.65822E-004	...........
	51	52.4333	1.05623E+000	1.05632E+000	7.64047E-004	...........
	52	53.4417	1.05641E+000	1.05667E+000	7.61955E-004	...........
	53	54.45	1.05649E+000	1.05598E+000	7.59805E-004	...........
	54	55.4583	1.05647E+000	1.05676E+000	7.60655E-004	...........
	55	56.4667	1.05644E+000	1.05671E+000	7.63922E-004	...........
	56	57.475	1.05646E+000	1.05673E+000	7.59013E-004	...........
	57	58.4833	1.05655E+000	1.05676E+000	7.62030E-004	...........
	58	59.4917	1.05665E+000	1.05730E+000	7.58997E-004	...........
	59	60.5	1.05677E+000	1.05721E+000	7.64813E-004	...........
	60	61.5083	1.05691E+000	1.05701E+000	7.51522E-004	...........
	61	62.5167	1.05702E+000	1.05647E+000	7.51155E-004	...........
	62	63.525	1.05704E+000	1.05732E+000	7.66763E-004	...........
	63	64.5333	1.05701E+000	1.05799E+000	7.65180E-004	...........
	64	65.5417	1.05705E+000	1.05619E+000	7.68122E-004	...........
	65	66.55	1.05710E+000	1.05592E+000	7.64122E-004	...........
	66	67.5583	1.05698E+000	1.05616E+000	7.61047E-004	...........
	67	68.5667	1.05668E+000	1.05637E+000	7.59472E-004	...........
	68	69.575	1.05638E+000	1.05609E+000	7.61972E-004	...........
	69	70.5833	1.05622E+000	1.05588E+000	7.60780E-004	...........
	70	71.5917	1.05613E+000	1.05517E+000	7.62647E-004	...........
	71	72.6	1.05601E+000	1.05665E+000	7.55072E-004	...........
	72	73.6083	1.05592E+000	1.05678E+000	7.58913E-004	...........
	73	74.6167	1.05601E+000	1.05694E+000	7.56480E-004	...........
	74	75.625	1.05627E+000	1.05710E+000	7.56230E-004	...........
	75	76.6333	1.05659E+000	1.05702E+000	7.61780E-004	...........
	76	77.6417	1.05684E+000	1.05721E+000	7.57938E-004	...........
	77	78.65	1.05700E+000	1.05685E+000	7.61555E-004	...........
	78	79.6583	1.05705E+000	1.05671E+000	7.61105E-004	...........
	79	80.6667	1.05701E+000	1.05616E+000	7.66547E-004	...........
	80	81.675	1.05686E+000	1.05627E+000	7.76305E-004	...........
	81	82.6833	1.05664E+000	1.05617E+000	7.66430E-004	...........
	82	83.6917	1.05644E+000	1.05649E+000	7.66397E-004	...........
	83	84.7	1.05633E+000	1.05699E+000	7.60130E-004	...........
	84	85.7083	1.05636E+000	1.05631E+000	7.63222E-004	...........
	85	86.7167	1.05646E+000	1.05628E+000	7.68130E-004	...........
	86	87.725	1.05653E+000	1.05712E+000	7.58038E-004	...........
	87	88.7333	1.05656E+000	1.05682E+000	7.63088E-004	...........
	88	89.7417	1.05664E+000	1.05703E+000	7.55780E-004	...........
	89	90.75	1.05673E+000	1.05563E+000	7.53847E-004	...........
	90	91.7583	1.05673E+000	1.05630E+000	7.67230E-004	...........
	91	92.7667	1.05658E+000	1.05688E+000	7.52864E-004	...........
	92	93.775	1.05646E+000	1.05771E+000	7.56455E-004	...........
	93	94.7833	1.05655E+000	1.05732E+000	7.57689E-004	...........
	94	95.792	1.05685E+000	1.05748E+000	7.61638E-004	...........
	95	96.8	1.05716E+000	1.05762E+000	7.60980E-004	...........
	96	97.808	1.05738E+000	1.05766E+000	7.60405E-004	...........
	97	98.817	1.05748E+000	1.05651E+000	7.63522E-004	...........
	98	99.825	1.05745E+000	1.05677E+000	7.56122E-004	...........
	99	100.833	1.05724E+000	1.05535E+000	7.54347E-004	...........
	100	101.842	1.05688E+000	1.05601E+000	7.63830E-004	...........
	101	102.85	1.05646E+000	1.05640E+000	7.65097E-004	...........
	102	103.858	1.05617E+000	1.05631E+000	7.67772E-004	...........
	103	104.867	1.05609E+000	1.05644E+000	7.66847E-004	...........
	104	105.875	1.05618E+000	1.05677E+000	7.59197E-004	...........
	105	106.883	1.05632E+000	1.05653E+000	7.66997E-004	...........
	106	107.892	1.05645E+000	1.05595E+000	7.64480E-004	...........
	107	108.9	1.05650E+000	1.05695E+000	7.59805E-004	...........
	108	109.908	1.05648E+000	1.05613E+000	7.62822E-004	...........
	109	110.917	1.05646E+000	1.05679E+000	7.66538E-004	...........
	110	111.925	1.05648E+000	1.05685E+000	7.59513E-004	...........
	111	112.933	1.05653E+000	1.05649E+000	7.67297E-004	...........
	112	113.942	1.05660E+000	1.05641E+000	7.58205E-004	...........
	113	114.95	1.05662E+000	1.05631E+000	7.59472E-004	...........
	114	115.958	1.05656E+000	1.05632E+000	7.62572E-004	...........
	115	116.967	1.05646E+000	1.05627E+000	7.63797E-004	...........
	116	117.975	1.05636E+000	1.05514E+000	7.61997E-004	...........
	117	118.983	1.05620E+000	1.05601E+000	7.57063E-004	...........
	118	119.992	1.05603E+000	1.05713E+000	7.64347E-004	...........
	119	121	1.05600E+000	1.05709E+000	7.53164E-004	...........
	120	122.008	1.05623E+000	1.05688E+000	7.47639E-004	...........
	121	123.017	1.05657E+000	1.05712E+000	7.50155E-004	...........
	122	124.025	1.05685E+000	1.05746E+000	7.58105E-004	...........
	123	125.033	1.05704E+000	1.05772E+000	7.58772E-004	...........
	124	126.042	1.05719E+000	1.05617E+000	7.59763E-004	...........
	125	127.05	1.05718E+000	1.05413E+000	7.50980E-004	...........
	126	128.058	1.05682E+000	1.05519E+000	7.57288E-004	...........
	127	129.067	1.05615E+000	1.05537E+000	7.56922E-004	...........
	128	130.075	1.05555E+000	1.05602E+000	7.61130E-004	...........
	129	131.083	1.05532E+000	1.05621E+000	7.65297E-004	...........
	130	132.092	1.05545E+000	1.05617E+000	7.65988E-004	...........
	131	133.1	1.05574E+000	1.05663E+000	7.48997E-004	...........
	132	134.108	1.05604E+000	1.05679E+000	7.59897E-004	...........
	133	135.117	1.05630E+000	1.05702E+000	7.58288E-004	...........
	134	136.125	1.05650E+000	1.05468E+000	7.65197E-004	...........
	135	137.133	1.05648E+000	1.05522E+000	7.61605E-004	...........
	136	138.142	1.05618E+000	1.05578E+000	7.61038E-004	...........
	137	139.15	1.05580E+000	1.05646E+000	7.68997E-004	...........
	138	140.158	1.05566E+000	1.05658E+000	7.67063E-004	...........
	139	141.167	1.05582E+000	1.05636E+000	7.68813E-004	...........
	140	142.175	1.05608E+000	1.05559E+000	7.60989E-004	...........
	141	143.183	1.05623E+000	1.05613E+000	7.65180E-004	...........
	142	144.192	1.05620E+000	1.05657E+000	7.72322E-004	...........
	143	145.2	1.05612E+000	1.05477E+000	7.70147E-004	...........
	144	146.208	1.05602E+000	1.05573E+000	7.73997E-004	...........
	145	147.217	1.05587E+000	1.05672E+000	7.75722E-004	...........
	146	148.225	1.05582E+000	1.05724E+000	7.80913E-004	...........
	147	149.233	1.05603E+000	1.05772E+000	7.76322E-004	...........
	148	150.242	1.05647E+000	1.05678E+000	7.63988E-004	...........
	149	151.25	1.05690E+000	1.05699E+000	7.65355E-004	...........
	150	152.258	1.05711E+000	1.05710E+000	7.68813E-004	...........
	151	153.267	1.05714E+000	1.05731E+000	7.56789E-004	...........
	152	154.275	1.05711E+000	1.05653E+000	7.59563E-004	...........
	153	155.283	1.05707E+000	1.05708E+000	7.63055E-004	...........
	154	156.292	1.05700E+000	1.05646E+000	7.66572E-004	...........
	155	157.3	1.05690E+000	1.05666E+000	7.68705E-004	...........
	156	158.308	1.05680E+000	1.05653E+000	7.70147E-004	...........
	157	159.317	1.05669E+000	1.05664E+000	7.64555E-004	...........
	158	160.325	1.05662E+000	1.05624E+000	7.67430E-004	...........
	159	161.333	1.05656E+000	1.05649E+000	7.66280E-004	...........
	160	162.342	1.05650E+000	1.05629E+000	7.61247E-004	...........
	161	163.35	1.05645E+000	1.05686E+000	7.57480E-004	...........
	162	164.358	1.05642E+000	1.05534E+000	7.58263E-004	...........
	163	165.367	1.05636E+000	1.05543E+000	7.61522E-004	...........
	164	166.375	1.05618E+000	1.05663E+000	7.61097E-004	...........
	165	167.383	1.05602E+000	1.05707E+000	7.57463E-004	...........
	166	168.392	1.05607E+000	1.05708E+000	7.54830E-004	...........
	167	169.4	1.05636E+000	1.05701E+000	7.55539E-004	...........
	168	170.408	1.05669E+000	1.05645E+000	7.66597E-004	...........
	169	171.417	1.05686E+000	1.05667E+000	7.65905E-004	...........
	170	172.425	1.05686E+000	1.05703E+000	7.64788E-004	...........
	171	173.433	1.05680E+000	1.05687E+000	7.63322E-004	...........
	172	174.442	1.05679E+000	1.05671E+000	7.59563E-004	...........
	173	175.45	1.05680E+000	1.05627E+000	7.68797E-004	...........
	174	176.458	1.05678E+000	1.05730E+000	7.59380E-004	...........
	175	177.467	1.05675E+000	1.05702E+000	7.58680E-004	...........
	176	178.475	1.05679E+000	1.05698E+000	7.64705E-004	...........
	177	179.483	1.05689E+000	1.05724E+000	7.69672E-004	...........
	178	180.492	1.05700E+000	1.05721E+000	7.68663E-004	...........
	179	181.5	1.05709E+000	1.05748E+000	7.64605E-004	...........
	180	182.508	1.05717E+000	1.05723E+000	7.60005E-004	...........
	181	183.517	1.05722E+000	1.05564E+000	7.56897E-004	...........
	182	184.525	1.05710E+000	1.05567E+000	7.62730E-004	...........
	183	185.533	1.05679E+000	1.05738E+000	7.65413E-004	...........
	184	186.542	1.05650E+000	1.05739E+000	7.64905E-004	...........
	185	187.55	1.05652E+000	1.05791E+000	7.70347E-004	...........
	186	188.558	1.05686E+000	1.05842E+000	7.59814E-004	...........
	187	189.567	1.05737E+000	1.06014E+000	7.64780E-004	...........
	188	190.575	1.05793E+000	1.05630E+000	7.70180E-004	...........
	189	191.583	1.05827E+000	1.05620E+000	7.76138E-004	...........
	190	192.592	1.05807E+000	1.05556E+000	7.67922E-004	...........
	191	193.6	1.05738E+000	1.05549E+000	7.63888E-004	...........
	192	194.608	1.05655E+000	1.05393E+000	7.65138E-004	...........
	193	195.617	1.05582E+000	1.05625E+000	7.69555E-004	...........
	194	196.625	1.05537E+000	1.05644E+000	7.68647E-004	...........
	195	197.633	1.05533E+000	1.05570E+000	7.63613E-004	...........
	196	198.642	1.05557E+000	1.05637E+000	7.74230E-004	...........
	197	199.65	1.05588E+000	1.05736E+000	7.69222E-004	...........
	198	200.658	1.05618E+000	1.05655E+000	7.70113E-004	...........
	199	201.667	1.05645E+000	1.05627E+000	7.70180E-004	...........
	200	202.675	1.05662E+000	1.05686E+000	7.66313E-004	...........
	201	203.683	1.05664E+000	1.05574E+000	7.64030E-004	...........
	202	204.692	1.05655E+000	1.05636E+000	7.71538E-004	...........
	203	205.7	1.05642E+000	1.05696E+000	7.63080E-004	...........
	204	206.708	1.05639E+000	1.05751E+000	7.66630E-004	...........
	205	207.717	1.05654E+000	1.05717E+000	7.66905E-004	...........
	206	208.725	1.05683E+000	1.05787E+000	7.71480E-004	...........
	207	209.733	1.05714E+000	1.05752E+000	7.67672E-004	...........
	208	210.742	1.05738E+000	1.05762E+000	7.73680E-004	...........
	209	211.75	1.05752E+000	1.05725E+000	7.63022E-004	...........
	210	212.758	1.05756E+000	1.05744E+000	7.67247E-004	...........
	211	213.767	1.05751E+000	1.05719E+000	7.59680E-004	...........
	212	214.775	1.05742E+000	1.05680E+000	7.66097E-004	...........
	213	215.783	1.05731E+000	1.05764E+000	7.77380E-004	...........
	214	216.792	1.05724E+000	1.05783E+000	7.70755E-004	...........
	215	217.8	1.05728E+000	1.05757E+000	7.66922E-004	...........
	216	218.808	1.05740E+000	1.05669E+000	7.64297E-004	...........
	217	219.817	1.05745E+000	1.05718E+000	7.70213E-004	...........
	218	220.825	1.05737E+000	1.05750E+000	7.70313E-004	...........
	219	221.833	1.05727E+000	1.05788E+000	7.67672E-004	...........
	220	222.842	1.05731E+000	1.05804E+000	7.64855E-004	...........
	221	223.85	1.05746E+000	1.05657E+000	7.66497E-004	...........
	222	224.858	1.05753E+000	1.05580E+000	7.67055E-004	...........
	223	225.867	1.05736E+000	1.05825E+000	7.69088E-004	...........
	224	226.875	1.05709E+000	1.05628E+000	7.74672E-004	...........
	225	227.883	1.05694E+000	1.05675E+000	7.70230E-004	...........
	226	228.892	1.05690E+000	1.05772E+000	7.74472E-004	...........
	227	229.9	1.05693E+000	1.05690E+000	7.68147E-004	...........
	228	230.908	1.05701E+000	1.05721E+000	7.65288E-004	...........
	229	231.917	1.05709E+000	1.05672E+000	7.71880E-004	...........
	230	232.925	1.05710E+000	1.05696E+000	7.64613E-004	...........
	231	233.933	1.05702E+000	1.05569E+000	7.70130E-004	...........
	232	234.942	1.05685E+000	1.05689E+000	7.61705E-004	...........
	233	235.95	1.05666E+000	1.05726E+000	7.62405E-004	...........
	234	236.958	1.05660E+000	1.05710E+000	7.66747E-004	...........
	235	237.967	1.05672E+000	1.05689E+000	7.66813E-004	...........
	236	238.975	1.05690E+000	1.05742E+000	7.70422E-004	...........
	237	239.983	1.05704E+000	1.05751E+000	7.67047E-004	...........
	238	240.992	1.05717E+000	1.05767E+000	7.64305E-004	...........
	239	242	1.05730E+000	1.05692E+000	7.58714E-004	...........
	240	243.008	1.05734E+000	1.05505E+000	7.75422E-004	...........
	241	244.017	1.05711E+000	1.05567E+000	7.75205E-004	...........
	242	245.025	1.05663E+000	1.05625E+000	7.74047E-004	...........
	243	246.033	1.05618E+000	1.05715E+000	7.66163E-004	...........
	244	247.042	1.05607E+000	1.05705E+000	7.66947E-004	...........
	245	248.05	1.05629E+000	1.05673E+000	7.64155E-004	...........
	246	249.058	1.05659E+000	1.05637E+000	7.62305E-004	...........
	247	250.067	1.05677E+000	1.05741E+000	7.64572E-004	...........
	248	251.075	1.05683E+000	1.05707E+000	7.62705E-004	...........
	249	252.083	1.05689E+000	1.05743E+000	7.69905E-004	...........
	250	253.092	1.05700E+000	1.05597E+000	7.74813E-004	...........
	251	254.1	1.05702E+000	1.05665E+000	7.71405E-004	...........
	252	255.108	1.05691E+000	1.05787E+000	7.75063E-004	...........
	253	256.117	1.05686E+000	1.05769E+000	7.72330E-004	...........
	254	257.125	1.05703E+000	1.05873E+000	7.66338E-004	...........
	255	258.133	1.05741E+000	1.05851E+000	7.60722E-004	...........
	256	259.142	1.05785E+000	1.05810E+000	7.65738E-004	...........
	257	260.15	1.05815E+000	1.05661E+000	7.74113E-004	...........
	258	261.158	1.05812E+000	1.05612E+000	7.76697E-004	...........
	259	262.167	1.05771E+000	1.05631E+000	7.72688E-004	...........
	260	263.175	1.05711E+000	1.05558E+000	7.63963E-004	...........
	261	264.183	1.05655E+000	1.05549E+000	7.73963E-004	...........
	262	265.192	1.05613E+000	1.05604E+000	7.81638E-004	...........
	263	266.2	1.05587E+000	1.05610E+000	7.80438E-004	...........
	264	267.208	1.05581E+000	1.05639E+000	7.78405E-004	...........
	265	268.217	1.05592E+000	1.05694E+000	7.79138E-004	...........
	266	269.225	1.05615E+000	1.05698E+000	7.69297E-004	...........
	267	270.233	1.05642E+000	1.05643E+000	7.71463E-004	...........
	268	271.242	1.05663E+000	1.05675E+000	7.72755E-004	...........
	269	272.25	1.05670E+000	1.05555E+000	7.73305E-004	...........
	270	273.258	1.05658E+000	1.05505E+000	7.79471E-004	...........
	271	274.267	1.05628E+000	1.05651E+000	7.68988E-004	...........
	272	275.275	1.05601E+000	1.05732E+000	7.72105E-004	...........
	273	276.283	1.05601E+000	1.05712E+000	7.67097E-004	...........
	274	277.292	1.05631E+000	1.05658E+000	7.66530E-004	...........
	275	278.3	1.05665E+000	1.05612E+000	7.75855E-004	...........
	276	279.308	1.05677E+000	1.05699E+000	7.63522E-004	...........
	277	280.317	1.05673E+000	1.05704E+000	7.62555E-004	...........
	278	281.325	1.05670E+000	1.05694E+000	7.66163E-004	...........
	279	282.333	1.05675E+000	1.05594E+000	7.68330E-004	...........
	280	283.342	1.05674E+000	1.05512E+000	7.63838E-004	...........
	281	284.35	1.05652E+000	1.05635E+000	7.74313E-004	...........
	282	285.358	1.05622E+000	1.05749E+000	7.66555E-004	...........
	283	286.367	1.05616E+000	1.05766E+000	7.70730E-004	...........
	284	287.375	1.05648E+000	1.05901E+000	7.66672E-004	...........
	285	288.383	1.05707E+000	1.05739E+000	7.72047E-004	...........
	286	289.392	1.05763E+000	1.05816E+000	7.66963E-004	...........
	287	290.4	1.05795E+000	1.05803E+000	7.74413E-004	...........
	288	291.408	1.05804E+000	1.05774E+000	7.68272E-004	...........
	289	292.417	1.05800E+000	1.05703E+000	7.63097E-004	...........
	290	293.425	1.05786E+000	1.05735E+000	7.73205E-004	...........
	291	294.433	1.05764E+000	1.05688E+000	7.65613E-004	...........
	292	295.442	1.05740E+000	1.05665E+000	7.65697E-004	...........
	293	296.45	1.05717E+000	1.05673E+000	7.71663E-004	...........
	294	297.458	1.05698E+000	1.05738E+000	7.77105E-004	...........
	295	298.467	1.05689E+000	1.05722E+000	7.63947E-004	...........
	296	299.475	1.05695E+000	1.05736E+000	7.70397E-004	...........
	297	300.483	1.05707E+000	1.05680E+000	7.65013E-004	...........
	298	301.492	1.05715E+000	1.05713E+000	7.65680E-004	...........
	299	302.5	1.05714E+000	1.05640E+000	7.67238E-004	...........
	300	303.508	1.05701E+000	1.05584E+000	7.69580E-004	...........
	301	304.517	1.05679E+000	1.05663E+000	7.70605E-004	...........
	302	305.525	1.05656E+000	1.05696E+000	7.67263E-004	...........
	303	306.533	1.05646E+000	1.05693E+000	7.64697E-004	...........
	304	307.542	1.05654E+000	1.05666E+000	7.66113E-004	...........
	305	308.55	1.05669E+000	1.05689E+000	7.58922E-004	...........
	306	309.558	1.05678E+000	1.05645E+000	7.72930E-004	...........
	307	310.567	1.05678E+000	1.05680E+000	7.60630E-004	...........
	308	311.575	1.05674E+000	1.05646E+000	7.66055E-004	...........
	309	312.583	1.05666E+000	1.05544E+000	7.63597E-004	...........
	310	313.592	1.05648E+000	1.05488E+000	7.67105E-004	...........
	311	314.6	1.05617E+000	1.05635E+000	7.73630E-004	...........
	312	315.608	1.05586E+000	1.05665E+000	7.71213E-004	...........
	313	316.617	1.05581E+000	1.05693E+000	7.58788E-004	...........
	314	317.625	1.05605E+000	1.05684E+000	7.59705E-004	...........
	315	318.633	1.05639E+000	1.05653E+000	7.63005E-004	...........
	316	319.642	1.05663E+000	1.05653E+000	7.66197E-004	...........
	317	320.65	1.05671E+000	1.05681E+000	7.66722E-004	...........
	318	321.658	1.05672E+000	1.05767E+000	7.64572E-004	...........
	319	322.667	1.05676E+000	1.05567E+000	7.61147E-004	...........
	320	323.675	1.05680E+000	1.05677E+000	7.59064E-004	...........
	321	324.683	1.05676E+000	1.05705E+000	7.57955E-004	...........
	322	325.692	1.05668E+000	1.05647E+000	7.68980E-004	...........
	323	326.7	1.05669E+000	1.05808E+000	7.68680E-004	...........
	324	327.708	1.05683E+000	1.05741E+000	7.63980E-004	...........
	325	328.717	1.05708E+000	1.05782E+000	7.63180E-004	...........
	326	329.725	1.05733E+000	1.05648E+000	7.64397E-004	...........
	327	330.733	1.05743E+000	1.05699E+000	7.57738E-004	...........
	328	331.742	1.05731E+000	1.05674E+000	7.70672E-004	...........
	329	332.75	1.05710E+000	1.05636E+000	7.71747E-004	...........
	330	333.758	1.05688E+000	1.05679E+000	7.69272E-004	...........
	331	334.767	1.05674E+000	1.05721E+000	7.68338E-004	...........
	332	335.775	1.05672E+000	1.05724E+000	7.62280E-004	...........
	333	336.783	1.05682E+000	1.05688E+000	7.71405E-004	...........
	334	337.792	1.05696E+000	1.05683E+000	7.61338E-004	...........
	335	338.8	1.05701E+000	1.05691E+000	7.60663E-004	...........
	336	339.808	1.05699E+000	1.05720E+000	7.69305E-004	...........
	337	340.817	1.05697E+000	1.05675E+000	7.71730E-004	...........
	338	341.825	1.05697E+000	1.05735E+000	7.79947E-004	...........
	339	342.833	1.05700E+000	1.05702E+000	7.70872E-004	...........
	340	343.842	1.05703E+000	1.05688E+000	7.71680E-004	...........
	341	344.85	1.05706E+000	1.05746E+000	7.76988E-004	...........
	342	345.858	1.05710E+000	1.05792E+000	7.73630E-004	...........
	343	346.867	1.05721E+000	1.05748E+000	7.74038E-004	...........
	344	347.875	1.05737E+000	1.05739E+000	7.75172E-004	...........
	345	348.883	1.05750E+000	1.05763E+000	7.79488E-004	...........
	346	349.892	1.05754E+000	1.05696E+000	7.68655E-004	...........
	347	350.9	1.05749E+000	1.05740E+000	7.75230E-004	...........
	348	351.908	1.05739E+000	1.05699E+000	7.68447E-004	...........
	349	352.917	1.05732E+000	1.05839E+000	7.65855E-004	...........
	350	353.925	1.05735E+000	1.05829E+000	7.65947E-004	...........
	351	354.933	1.05756E+000	1.05822E+000	7.64372E-004	...........
	352	355.942	1.05786E+000	1.05860E+000	7.67405E-004	...........
	353	356.95	1.05813E+000	1.05820E+000	7.64838E-004	...........
	354	357.958	1.05828E+000	1.05786E+000	7.70105E-004	...........
	355	358.967	1.05832E+000	1.05871E+000	7.71122E-004	...........
	356	359.975	1.05826E+000	1.05696E+000	7.66138E-004	...........
	357	360.983	1.05812E+000	1.05624E+000	7.69913E-004	...........
	358	361.992	1.05780E+000	1.05732E+000	7.67480E-004	...........
	359	363	1.05741E+000	1.05804E+000	7.55297E-004	...........
	360	364.008	1.05722E+000	1.05871E+000	7.57597E-004	...........
	361	365.017	1.05737E+000	1.05642E+000	7.64580E-004	...........
	362	366.025	1.05758E+000	1.05680E+000	7.63188E-004	...........
	363	367.033	1.05755E+000	1.05704E+000	7.57839E-004	...........
	364	368.042	1.05729E+000	1.05640E+000	7.74255E-004	...........
	365	369.05	1.05699E+000	1.05564E+000	7.74222E-004	...........
	366	370.058	1.05669E+000	1.05624E+000	7.72230E-004	...........
	367	371.067	1.05643E+000	1.05723E+000	7.64305E-004	...........
	368	372.075	1.05632E+000	1.05676E+000	7.66655E-004	...........
	369	373.083	1.05642E+000	1.05657E+000	7.69588E-004	...........
	370	374.092	1.05661E+000	1.05714E+000	7.63647E-004	...........
	371	375.1	1.05676E+000	1.05753E+000	7.70455E-004	...........
	372	376.108	1.05690E+000	1.05688E+000	7.64438E-004	...........
	373	377.117	1.05703E+000	1.05679E+000	7.60655E-004	...........
	374	378.125	1.05704E+000	1.05507E+000	7.69397E-004	...........
	375	379.133	1.05682E+000	1.05547E+000	7.70672E-004	...........
	376	380.142	1.05640E+000	1.05664E+000	7.66022E-004	...........
	377	381.15	1.05605E+000	1.05648E+000	7.66530E-004	...........
	378	382.158	1.05599E+000	1.05698E+000	7.51564E-004	...........
	379	383.167	1.05619E+000	1.05685E+000	7.57439E-004	...........
	380	384.175	1.05649E+000	1.05749E+000	7.66805E-004	...........
	381	385.183	1.05677E+000	1.05720E+000	7.61522E-004	...........
	382	386.192	1.05700E+000	1.05684E+000	7.63013E-004	...........
	383	387.2	1.05713E+000	1.05743E+000	7.65555E-004	...........
	384	388.208	1.05716E+000	1.05659E+000	7.62147E-004	...........
	385	389.217	1.05711E+000	1.05683E+000	7.53122E-004	...........
	386	390.225	1.05705E+000	1.05807E+000	7.58330E-004	...........
	387	391.233	1.05706E+000	1.05779E+000	7.51997E-004	...........
	388	392.242	1.05725E+000	1.05824E+000	7.61997E-004	...........
	389	393.25	1.05755E+000	1.05822E+000	7.58255E-004	...........
	390	394.258	1.05785E+000	1.05859E+000	7.59705E-004	...........
	391	395.267	1.05809E+000	1.05848E+000	7.52805E-004	...........
	392	396.275	1.05829E+000	1.05872E+000	7.49047E-004	...........
	393	397.283	1.05845E+000	1.05914E+000	7.50847E-004	...........
	394	398.292	1.05854E+000	1.05592E+000	7.57888E-004	...........
	395	399.3	1.05842E+000	1.05691E+000	7.55372E-004	...........
	396	400.308	1.05796E+000	1.05589E+000	7.57463E-004	...........
	397	401.317	1.05731E+000	1.05678E+000	7.57772E-004	...........
	398	402.325	1.05680E+000	1.05743E+000	7.59363E-004	...........
	399	403.333	1.05663E+000	1.05778E+000	7.59588E-004	...........
	400	404.342	1.05680E+000	1.05710E+000	7.58280E-004	...........
	401	405.35	1.05710E+000	1.05757E+000	7.64230E-004	...........
	402	406.358	1.05732E+000	1.05759E+000	7.62813E-004	...........
	403	407.367	1.05743E+000	1.05734E+000	7.52422E-004	...........
	404	408.375	1.05748E+000	1.05757E+000	7.60597E-004	...........
	405	409.383	1.05747E+000	1.05648E+000	7.62022E-004	...........
	406	410.392	1.05732E+000	1.05374E+000	7.59930E-004	...........
	407	411.4	1.05690E+000	1.05763E+000	7.65497E-004	...........
	408	412.408	1.05642E+000	1.05823E+000	7.57647E-004	...........
	409	413.417	1.05635E+000	1.05831E+000	7.57613E-004	...........
	410	414.425	1.05683E+000	1.05849E+000	7.53772E-004	...........
	411	415.433	1.05752E+000	1.05823E+000	7.52105E-004	...........
	412	416.442	1.05804E+000	1.05851E+000	7.53664E-004	...........
	413	417.45	1.05831E+000	1.05826E+000	7.49914E-004	...........
	414	418.458	1.05839E+000	1.05802E+000	7.60797E-004	...........
	415	419.467	1.05834E+000	1.05734E+000	7.53014E-004	...........
	416	420.475	1.05818E+000	1.05766E+000	7.55888E-004	...........
	417	421.483	1.05796E+000	1.05781E+000	7.67438E-004	...........
	418	422.492	1.05780E+000	1.05876E+000	7.51405E-004	...........
	419	423.5	1.05783E+000	1.05928E+000	7.62288E-004	...........
	420	424.508	1.05810E+000	1.05862E+000	7.51072E-004	...........
	421	425.517	1.05845E+000	1.05876E+000	7.58455E-004	...........
	422	426.525	1.05871E+000	1.05895E+000	7.60030E-004	...........
	423	427.533	1.05882E+000	1.05888E+000	7.60289E-004	...........
	424	428.542	1.05887E+000	1.05956E+000	7.64738E-004	...........
	425	429.55	1.05894E+000	1.05906E+000	7.62905E-004	...........
	426	430.558	1.05902E+000	1.05749E+000	7.68755E-004	...........
	427	431.567	1.05894E+000	1.05693E+000	7.63105E-004	...........
	428	432.575	1.05857E+000	1.05776E+000	7.70838E-004	...........
	429	433.583	1.05805E+000	1.05758E+000	7.63147E-004	...........
	430	434.592	1.05768E+000	1.05744E+000	7.67455E-004	...........
	431	435.6	1.05752E+000	1.05754E+000	7.65663E-004	...........
	432	436.608	1.05749E+000	1.05730E+000	7.62905E-004	...........
	433	437.617	1.05748E+000	1.05749E+000	7.63697E-004	...........
	434	438.625	1.05747E+000	1.05779E+000	7.70605E-004	...........
	435	439.633	1.05748E+000	1.05769E+000	7.66788E-004	...........
	436	440.642	1.05753E+000	1.05697E+000	7.58655E-004	...........
	437	441.65	1.05754E+000	1.05738E+000	7.62863E-004	...........
	438	442.658	1.05749E+000	1.05783E+000	7.64730E-004	...........
	439	443.667	1.05745E+000	1.05813E+000	7.70238E-004	...........
	440	444.675	1.05754E+000	1.05833E+000	7.61430E-004	...........
	441	445.683	1.05775E+000	1.05824E+000	7.70772E-004	...........
	442	446.692	1.05798E+000	1.05820E+000	7.67022E-004	...........
	443	447.7	1.05814E+000	1.05756E+000	7.65555E-004	...........
	444	448.708	1.05816E+000	1.05831E+000	7.61355E-004	...........
	445	449.717	1.05810E+000	1.05819E+000	7.62605E-004	...........
	446	450.725	1.05807E+000	1.05856E+000	7.57364E-004	...........
	447	451.733	1.05810E+000	1.05696E+000	7.61747E-004	...........
	448	452.742	1.05810E+000	1.05817E+000	7.59455E-004	...........
	449	453.75	1.05800E+000	1.05779E+000	7.65963E-004	...........
	450	454.758	1.05788E+000	1.05797E+000	7.59988E-004	...........
	451	455.767	1.05784E+000	1.05807E+000	7.56222E-004	...........
	452	456.775	1.05788E+000	1.05824E+000	7.65172E-004	...........
	453	457.783	1.05797E+000	1.05853E+000	7.49289E-004	...........
	454	458.792	1.05811E+000	1.05895E+000	7.59055E-004	...........
	455	459.8	1.05830E+000	1.05870E+000	7.53314E-004	...........
	456	460.808	1.05851E+000	1.05892E+000	7.58347E-004	...........
	457	461.817	1.05868E+000	1.05862E+000	7.57988E-004	...........
	458	462.825	1.05874E+000	1.05725E+000	7.61539E-004	...........
	459	463.833	1.05861E+000	1.05767E+000	7.65747E-004	...........
	460	464.842	1.05832E+000	1.05830E+000	7.62538E-004	...........
	461	465.85	1.05806E+000	1.05926E+000	7.62638E-004	...........
	462	466.858	1.05805E+000	1.05821E+000	7.61130E-004	...........
	463	467.867	1.05823E+000	1.05734E+000	7.59105E-004	...........
	464	468.875	1.05833E+000	1.05846E+000	7.59622E-004	...........
	465	469.883	1.05824E+000	1.05736E+000	7.57472E-004	...........
	466	470.892	1.05805E+000	1.05724E+000	7.55272E-004	...........
	467	471.9	1.05784E+000	1.05765E+000	7.69222E-004	...........
	468	472.908	1.05764E+000	1.05690E+000	7.57314E-004	...........
	469	473.917	1.05743E+000	1.05554E+000	7.64088E-004	...........
	470	474.925	1.05716E+000	1.05686E+000	7.55264E-004	...........
	471	475.933	1.05684E+000	1.05784E+000	7.70005E-004	...........
	472	476.942	1.05673E+000	1.05830E+000	7.68747E-004	...........
	473	477.95	1.05699E+000	1.05846E+000	7.66930E-004	...........
	474	478.958	1.05747E+000	1.05792E+000	7.67722E-004	...........
	475	479.967	1.05789E+000	1.05785E+000	7.75338E-004	...........
	476	480.975	1.05809E+000	1.05810E+000	7.71672E-004	...........
	477	481.983	1.05810E+000	1.05796E+000	7.77980E-004	...........
	478	482.992	1.05806E+000	1.05877E+000	7.69305E-004	...........
	479	484	1.05809E+000	1.05827E+000	7.66605E-004	...........
	480	485.008	1.05820E+000	1.05848E+000	7.67155E-004	...........
	481	486.017	1.05833E+000	1.05870E+000	7.68522E-004	...........
	482	487.025	1.05843E+000	1.05882E+000	7.75013E-004	...........
	483	488.033	1.05854E+000	1.05887E+000	7.68805E-004	...........
	484	489.042	1.05865E+000	1.05886E+000	7.71038E-004	...........
	485	490.05	1.05876E+000	1.05930E+000	7.76947E-004	...........
	486	491.058	1.05888E+000	1.05967E+000	7.69947E-004	...........
	487	492.067	1.05904E+000	1.05946E+000	7.74380E-004	...........
	488	493.075	1.05924E+000	1.05953E+000	7.65880E-004	...........
	489	494.083	1.05938E+000	1.05863E+000	7.67663E-004	...........
	490	495.092	1.05936E+000	1.05748E+000	7.69630E-004	...........
	491	496.1	1.05914E+000	1.06058E+000	7.64005E-004	...........
	492	497.108	1.05892E+000	1.05859E+000	7.67530E-004	...........
	493	498.117	1.05889E+000	1.05897E+000	7.73113E-004	...........
	494	499.125	1.05897E+000	1.05843E+000	7.69638E-004	...........
	495	500.133	1.05896E+000	1.05842E+000	7.71705E-004	...........
	496	501.142	1.05883E+000	1.05878E+000	7.69480E-004	...........
	497	502.15	1.05869E+000	1.05893E+000	7.75913E-004	...........
	498	503.158	1.05864E+000	1.05811E+000	7.75447E-004	...........
	499	504.167	1.05862E+000	1.05856E+000	7.62463E-004	...........
	500	505.175	1.05855E+000	1.05677E+000	7.67963E-004	...........
	501	506.183	1.05833E+000	1.05743E+000	7.65063E-004	...........
	502	507.192	1.05802E+000	1.05915E+000	7.65038E-004	...........
	503	508.2	1.05783E+000	1.05829E+000	7.66913E-004	...........
	504	509.208	1.05793E+000	1.05850E+000	7.67097E-004	...........
	505	510.217	1.05818E+000	1.05857E+000	7.65180E-004	...........
	506	511.225	1.05839E+000	1.05876E+000	7.63772E-004	...........
	507	512.233	1.05853E+000	1.05909E+000	7.73422E-004	...........
	508	513.242	1.05865E+000	1.05929E+000	7.76505E-004	...........
	509	514.25	1.05882E+000	1.05913E+000	7.71163E-004	...........
	510	515.258	1.05899E+000	1.05932E+000	7.65780E-004	...........
	511	516.267	1.05909E+000	1.05751E+000	7.70630E-004	...........
	512	517.275	1.05901E+000	1.05807E+000	7.65630E-004	...........
	513	518.283	1.05874E+000	1.05879E+000	7.66088E-004	...........
	514	519.292	1.05846E+000	1.05893E+000	7.69713E-004	...........
	515	520.3	1.05839E+000	1.05819E+000	7.70822E-004	...........
	516	521.308	1.05847E+000	1.05888E+000	7.72288E-004	...........
	517	522.317	1.05856E+000	1.05892E+000	7.78030E-004	...........
	518	523.325	1.05865E+000	1.05908E+000	7.73430E-004	...........
	519	524.333	1.05874E+000	1.05842E+000	7.71130E-004	...........
	520	525.342	1.05880E+000	1.05833E+000	7.74897E-004	...........
	521	526.35	1.05876E+000	1.05894E+000	7.67347E-004	...........
	522	527.358	1.05866E+000	1.05748E+000	7.72313E-004	...........
	523	528.367	1.05852E+000	1.05851E+000	7.71155E-004	...........
	524	529.375	1.05840E+000	1.05977E+000	7.64663E-004	...........
	525	530.383	1.05843E+000	1.05926E+000	7.75338E-004	...........
	526	531.392	1.05871E+000	1.06073E+000	7.64922E-004	...........
	527	532.4	1.05912E+000	1.05782E+000	7.75805E-004	...........
	528	533.408	1.05937E+000	1.05813E+000	7.67163E-004	...........
	529	534.417	1.05923E+000	1.05747E+000	7.73372E-004	...........
	530	535.425	1.05877E+000	1.05817E+000	7.68547E-004	...........
	531	536.433	1.05830E+000	1.05824E+000	7.65547E-004	...........
	532	537.442	1.05805E+000	1.05871E+000	7.62322E-004	...........
	533	538.45	1.05803E+000	1.05639E+000	7.78146E-004	...........
	534	539.458	1.05801E+000	1.05733E+000	7.74680E-004	...........
	535	540.467	1.05781E+000	1.05790E+000	7.77513E-004	...........
	536	541.475	1.05760E+000	1.05908E+000	7.66947E-004	...........
	537	542.483	1.05766E+000	1.05898E+000	7.69363E-004	...........
	538	543.492	1.05801E+000	1.05856E+000	7.60947E-004	...........
	539	544.5	1.05841E+000	1.05867E+000	7.66963E-004	...........
	540	545.508	1.05867E+000	1.05909E+000	7.71630E-004	...........
	541	546.517	1.05877E+000	1.05852E+000	7.63530E-004	...........
	542	547.525	1.05879E+000	1.05862E+000	7.63322E-004	...........
	543	548.533	1.05875E+000	1.05823E+000	7.63780E-004	...........
	544	549.542	1.05867E+000	1.05859E+000	7.62097E-004	...........
	545	550.55	1.05855E+000	1.05793E+000	7.57088E-004	...........
	546	551.558	1.05845E+000	1.05915E+000	7.64088E-004	...........
	547	552.567	1.05843E+000	1.05909E+000	7.59022E-004	...........
	548	553.575	1.05853E+000	1.05852E+000	7.53289E-004	...........
	549	554.583	1.05868E+000	1.05817E+000	7.63747E-004	...........
	550	555.592	1.05871E+000	1.05855E+000	7.50797E-004	...........
	551	556.6	1.05864E+000	1.05902E+000	7.67472E-004	...........
	552	557.608	1.05857E+000	1.05838E+000	7.57347E-004	...........
	553	558.617	1.05859E+000	1.05929E+000	7.64013E-004	...........
	554	559.625	1.05867E+000	1.05855E+000	7.57405E-004	...........
	555	560.633	1.05877E+000	1.05946E+000	7.61888E-004	...........
	556	561.642	1.05885E+000	1.05810E+000	7.62897E-004	...........
	557	562.65	1.05888E+000	1.05919E+000	7.67772E-004	...........
	558	563.658	1.05886E+000	1.05892E+000	7.61497E-004	...........
	559	564.667	1.05886E+000	1.05960E+000	7.69480E-004	...........
	560	565.675	1.05897E+000	1.06085E+000	7.55247E-004	...........
	561	566.683	1.05923E+000	1.05824E+000	7.62288E-004	...........
	562	567.692	1.05947E+000	1.05911E+000	7.71597E-004	...........
	563	568.7	1.05948E+000	1.05868E+000	7.62163E-004	...........
	564	569.708	1.05926E+000	1.05837E+000	7.57955E-004	...........
	565	570.717	1.05899E+000	1.05915E+000	7.65088E-004	...........
	566	571.725	1.05879E+000	1.05839E+000	7.59722E-004	...........
	567	572.733	1.05869E+000	1.05762E+000	7.70930E-004	...........
	568	573.742	1.05857E+000	1.05827E+000	7.62030E-004	...........
	569	574.75	1.05838E+000	1.05846E+000	7.63547E-004	...........
	570	575.758	1.05825E+000	1.05889E+000	7.66163E-004	...........
	571	576.767	1.05828E+000	1.05872E+000	7.64030E-004	...........
	572	577.775	1.05844E+000	1.05879E+000	7.67072E-004	...........
	573	578.783	1.05864E+000	1.06018E+000	7.63522E-004	...........
	574	579.792	1.05885E+000	1.05813E+000	7.64455E-004	...........
	575	580.8	1.05901E+000	1.05863E+000	7.69705E-004	...........
	576	581.808	1.05902E+000	1.05911E+000	7.73280E-004	...........
	577	582.817	1.05891E+000	1.05829E+000	7.63455E-004	...........
	578	583.825	1.05876E+000	1.05703E+000	7.59630E-004	...........
	579	584.833	1.05854E+000	1.05880E+000	7.57805E-004	...........
	580	585.842	1.05830E+000	1.05918E+000	7.57522E-004	...........
	581	586.85	1.05825E+000	1.05843E+000	7.59647E-004	...........
	582	587.858	1.05839E+000	1.05832E+000	7.49314E-004	...........
	583	588.867	1.05855E+000	1.05901E+000	7.63238E-004	...........
	584	589.875	1.05861E+000	1.05863E+000	7.63747E-004	...........
	585	590.883	1.05866E+000	1.05916E+000	7.62097E-004	...........
	586	591.892	1.05873E+000	1.05871E+000	7.57830E-004	...........
	587	592.9	1.05883E+000	1.05994E+000	7.54464E-004	...........
	588	593.908	1.05898E+000	1.05978E+000	7.58797E-004	...........
	589	594.917	1.05921E+000	1.05972E+000	7.55597E-004	...........
	590	595.925	1.05945E+000	1.05928E+000	7.63005E-004	...........
	591	596.933	1.05959E+000	1.05930E+000	7.62430E-004	...........
	592	597.942	1.05959E+000	1.06007E+000	7.51105E-004	...........
	593	598.95	1.05960E+000	1.06191E+000	7.56697E-004	...........
	594	599.958	1.05979E+000	1.05815E+000	7.64855E-004	...........
	595	600.967	1.05996E+000	1.05736E+000	7.59247E-004	...........
	596	601.975	1.05973E+000	1.05838E+000	7.59980E-004	...........
	597	602.983	1.05911E+000	1.05821E+000	7.60647E-004	...........
	598	603.992	1.05852E+000	1.05825E+000	7.64922E-004	...........
	599	605	1.05822E+000	1.05786E+000	7.65530E-004	...........
	600	606.008	1.05812E+000	1.05784E+000	7.65105E-004	...........
	601	607.017	1.05808E+000	1.05902E+000	7.63622E-004	...........
	602	608.025	1.05810E+000	1.05806E+000	7.64522E-004	...........
	603	609.033	1.05820E+000	1.05842E+000	7.58813E-004	...........
	604	610.042	1.05829E+000	1.05746E+000	7.63288E-004	...........
	605	611.05	1.05826E+000	1.05784E+000	7.62763E-004	...........
	606	612.058	1.05810E+000	1.05753E+000	7.57772E-004	...........
	607	613.067	1.05790E+000	1.05732E+000	7.55330E-004	...........
	608	614.075	1.05773E+000	1.05823E+000	7.58422E-004	...........
	609	615.083	1.05765E+000	1.05773E+000	7.66038E-004	...........
	610	616.092	1.05767E+000	1.05708E+000	7.60397E-004	...........
	611	617.1	1.05769E+000	1.05827E+000	7.49839E-004	...........
	612	618.108	1.05770E+000	1.05812E+000	7.64438E-004	...........
	613	619.117	1.05775E+000	1.05795E+000	7.67222E-004	...........
	614	620.125	1.05789E+000	1.05922E+000	7.58505E-004	...........
	615	621.133	1.05814E+000	1.06078E+000	7.62672E-004	...........
	616	622.142	1.05852E+000	1.05626E+000	7.63497E-004	...........
	617	623.15	1.05882E+000	1.05928E+000	7.70905E-004	...........
	618	624.158	1.05881E+000	1.05857E+000	7.60980E-004	...........
	619	625.167	1.05863E+000	1.05799E+000	7.68197E-004	...........
	620	626.175	1.05849E+000	1.05818E+000	7.68180E-004	...........
	621	627.183	1.05838E+000	1.05813E+000	7.67597E-004	...........
	622	628.192	1.05829E+000	1.05905E+000	7.64522E-004	...........
	623	629.2	1.05832E+000	1.06002E+000	7.64180E-004	...........
	624	630.208	1.05855E+000	1.05880E+000	7.71255E-004	...........
	625	631.217	1.05890E+000	1.05981E+000	7.64230E-004	...........
	626	632.225	1.05920E+000	1.05929E+000	7.68663E-004	...........
	627	633.233	1.05931E+000	1.05691E+000	7.62530E-004	...........
	628	634.242	1.05915E+000	1.05801E+000	7.62455E-004	...........
	629	635.25	1.05872E+000	1.05816E+000	7.62305E-004	...........
	630	636.258	1.05827E+000	1.05814E+000	7.57988E-004	...........
	631	637.267	1.05805E+000	1.05894E+000	7.76638E-004	...........
	632	638.275	1.05809E+000	1.05796E+000	7.76872E-004	...........
	633	639.283	1.05822E+000	1.05805E+000	7.67897E-004	...........
	634	640.292	1.05830E+000	1.05868E+000	7.58730E-004	...........
	635	641.3	1.05831E+000	1.05860E+000	7.59055E-004	...........
	636	642.308	1.05835E+000	1.05856E+000	7.60113E-004	...........
	637	643.317	1.05843E+000	1.05810E+000	7.58089E-004	...........
	638	644.325	1.05847E+000	1.05841E+000	7.57955E-004	...........
	639	645.333	1.05844E+000	1.05830E+000	7.61030E-004	...........
	640	646.342	1.05838E+000	1.05860E+000	7.62938E-004	...........
	641	647.35	1.05835E+000	1.05774E+000	7.72988E-004	...........
	642	648.358	1.05833E+000	1.05853E+000	7.64472E-004	...........
	643	649.367	1.05829E+000	1.05863E+000	7.62330E-004	...........
	644	650.375	1.05831E+000	1.05918E+000	7.71672E-004	...........
	645	651.383	1.05844E+000	1.05875E+000	7.59597E-004	...........
	646	652.392	1.05864E+000	1.05891E+000	7.65938E-004	...........
	647	653.4	1.05880E+000	1.05903E+000	7.68213E-004	...........
	648	654.408	1.05889E+000	1.05900E+000	7.64472E-004	...........
	649	655.417	1.05895E+000	1.05976E+000	7.62338E-004	...........
	650	656.425	1.05905E+000	1.05918E+000	7.62913E-004	...........
	651	657.433	1.05916E+000	1.05808E+000	7.65180E-004	...........
	652	658.442	1.05916E+000	1.05876E+000	7.61888E-004	...........
	653	659.45	1.05899E+000	1.05891E+000	7.66955E-004	...........
	654	660.458	1.05883E+000	1.05943E+000	7.64622E-004	...........
	655	661.467	1.05882E+000	1.05948E+000	7.68280E-004	...........
	656	662.475	1.05898E+000	1.05965E+000	7.65147E-004	...........
	657	663.483	1.05921E+000	1.05968E+000	7.61663E-004	...........
	658	664.492	1.05945E+000	1.06104E+000	7.65313E-004	...........
	659	665.5	1.05968E+000	1.05876E+000	7.69580E-004	...........
	660	666.508	1.05985E+000	1.05966E+000	7.73722E-004	...........
	661	667.517	1.05983E+000	1.05877E+000	7.70538E-004	...........
	662	668.525	1.05961E+000	1.05803E+000	7.71997E-004	...........
	663	669.533	1.05926E+000	1.05871E+000	7.63547E-004	...........
	664	670.542	1.05890E+000	1.05919E+000	7.72922E-004	...........
	665	671.55	1.05870E+000	1.05829E+000	7.68447E-004	...........
	666	672.558	1.05867E+000	1.05927E+000	7.72613E-004	...........
	667	673.567	1.05873E+000	1.05905E+000	7.71613E-004	...........
	668	674.575	1.05882E+000	1.05877E+000	7.64230E-004	...........
	669	675.583	1.05892E+000	1.05961E+000	7.71580E-004	...........
	670	676.592	1.05903E+000	1.05991E+000	7.63597E-004	...........
	671	677.6	1.05918E+000	1.05872E+000	7.69138E-004	...........
	672	678.608	1.05929E+000	1.05794E+000	7.73905E-004	...........
	673	679.617	1.05919E+000	1.05825E+000	7.64163E-004	...........
	674	680.625	1.05889E+000	1.05919E+000	7.70505E-004	...........
	675	681.633	1.05862E+000	1.05846E+000	7.59897E-004	...........
	676	682.642	1.05855E+000	1.05893E+000	7.64647E-004	...........
	677	683.65	1.05862E+000	1.05888E+000	7.63213E-004	...........
	678	684.658	1.05872E+000	1.05886E+000	7.67855E-004	...........
	679	685.667	1.05880E+000	1.05895E+000	7.66297E-004	...........
	680	686.675	1.05886E+000	1.05925E+000	7.70022E-004	...........
	681	687.683	1.05892E+000	1.05873E+000	7.68813E-004	...........
	682	688.692	1.05894E+000	1.05721E+000	7.80946E-004	...........
	683	689.7	1.05877E+000	1.05739E+000	7.68797E-004	...........
	684	690.708	1.05843E+000	1.05961E+000	7.76647E-004	...........
	685	691.717	1.05819E+000	1.05957E+000	7.70472E-004	...........
	686	692.725	1.05833E+000	1.05948E+000	7.72772E-004	...........
	687	693.733	1.05877E+000	1.05974E+000	7.68647E-004	...........
	688	694.742	1.05920E+000	1.05928E+000	7.76930E-004	...........
	689	695.75	1.05946E+000	1.06003E+000	7.72163E-004	...........
	690	696.758	1.05960E+000	1.06034E+000	7.70897E-004	...........
	691	697.767	1.05973E+000	1.06002E+000	7.67122E-004	...........
	692	698.775	1.05986E+000	1.05834E+000	7.73955E-004	...........
	693	699.783	1.05982E+000	1.05858E+000	7.69347E-004	...........
	694	700.792	1.05954E+000	1.05902E+000	7.67497E-004	...........
	695	701.8	1.05916E+000	1.05915E+000	7.82155E-004	...........
	696	702.808	1.05895E+000	1.05957E+000	7.78388E-004	...........
	697	703.817	1.05897E+000	1.05937E+000	7.77038E-004	...........
	698	704.825	1.05914E+000	1.05982E+000	7.70855E-004	...........
	699	705.833	1.05933E+000	1.05937E+000	7.75322E-004	...........
	700	706.842	1.05947E+000	1.05975E+000	7.63955E-004	...........
	701	707.85	1.05956E+000	1.05979E+000	7.69580E-004	...........
	702	708.858	1.05961E+000	1.05939E+000	7.63822E-004	...........
	703	709.867	1.05960E+000	1.05767E+000	7.70313E-004	...........
	704	710.875	1.05941E+000	1.05821E+000	7.67913E-004	...........
	705	711.883	1.05902E+000	1.05867E+000	7.63730E-004	...........
	706	712.892	1.05865E+000	1.05988E+000	7.67738E-004	...........
	707	713.9	1.05858E+000	1.05903E+000	7.70022E-004	...........
	708	714.908	1.05879E+000	1.05939E+000	7.66205E-004	...........
	709	715.917	1.05906E+000	1.05905E+000	7.70180E-004	...........
	710	716.925	1.05921E+000	1.05908E+000	7.62255E-004	...........
	711	717.933	1.05923E+000	1.05939E+000	7.70022E-004	...........
	712	718.942	1.05921E+000	1.05931E+000	7.71988E-004	...........
	713	719.95	1.05921E+000	1.05887E+000	7.68213E-004	...........
	714	720.958	1.05921E+000	1.05904E+000	7.77622E-004	...........
	715	721.967	1.05917E+000	1.05915E+000	7.76880E-004	...........
	716	722.975	1.05911E+000	1.05924E+000	7.72297E-004	...........
	717	723.983	1.05910E+000	1.05917E+000	7.72822E-004	...........
	718	724.992	1.05912E+000	1.05892E+000	7.69655E-004	...........
	719	726	1.05913E+000	1.05912E+000	7.69013E-004	...........
	720	727.008	1.05913E+000	1.05975E+000	7.66205E-004	...........
	721	728.017	1.05916E+000	1.05954E+000	7.73780E-004	...........
	722	729.025	1.05930E+000	1.06072E+000	7.66938E-004	...........
	723	730.033	1.05950E+000	1.05794E+000	7.74897E-004	...........
	724	731.042	1.05959E+000	1.05834E+000	7.76197E-004	...........
	725	732.05	1.05938E+000	1.05816E+000	7.76288E-004	...........
	726	733.058	1.05897E+000	1.05924E+000	7.78605E-004	...........
	727	734.067	1.05866E+000	1.05915E+000	7.79755E-004	...........
	728	735.075	1.05863E+000	1.05862E+000	7.64197E-004	...........
	729	736.083	1.05875E+000	1.05890E+000	7.60947E-004	...........
	730	737.092	1.05886E+000	1.05968E+000	7.64738E-004	...........
	731	738.1	1.05896E+000	1.05925E+000	7.66163E-004	...........
	732	739.108	1.05908E+000	1.05850E+000	7.65013E-004	...........
	733	740.117	1.05911E+000	1.05749E+000	7.66463E-004	...........
	734	741.125	1.05891E+000	1.05758E+000	7.67963E-004	...........
	735	742.133	1.05851E+000	1.05872E+000	7.62888E-004	...........
	736	743.142	1.05819E+000	1.05894E+000	7.61080E-004	...........
	737	744.15	1.05815E+000	1.05850E+000	7.61580E-004	...........
	738	745.158	1.05833E+000	1.05861E+000	7.67655E-004	...........
	739	746.167	1.05852E+000	1.05891E+000	7.65597E-004	...........
	740	747.175	1.05864E+000	1.05880E+000	7.62522E-004	...........
	741	748.183	1.05874E+000	1.06028E+000	7.70697E-004	...........
	742	749.192	1.05893E+000	1.05956E+000	7.68747E-004	...........
	743	750.2	1.05919E+000	1.05800E+000	7.62647E-004	...........
	744	751.208	1.05932E+000	1.05955E+000	7.62963E-004	...........
	745	752.217	1.05925E+000	1.05887E+000	7.61930E-004	...........
	746	753.225	1.05911E+000	1.05879E+000	7.60238E-004	...........
	747	754.233	1.05901E+000	1.05914E+000	7.66297E-004	...........
	748	755.242	1.05898E+000	1.05933E+000	7.72080E-004	...........
	749	756.25	1.05900E+000	1.05882E+000	7.64863E-004	...........
	750	757.258	1.05903E+000	1.05854E+000	7.67963E-004	...........
	751	758.267	1.05902E+000	1.05968E+000	7.74188E-004	...........
	752	759.275	1.05901E+000	1.05990E+000	7.66938E-004	...........
	753	760.283	1.05913E+000	1.05969E+000	7.70180E-004	...........
	754	761.292	1.05935E+000	1.05891E+000	7.72205E-004	...........
	755	762.3	1.05944E+000	1.05670E+000	7.67672E-004	...........
	756	763.308	1.05920E+000	1.05884E+000	7.59713E-004	...........
	757	764.317	1.05875E+000	1.05912E+000	7.64263E-004	...........
	758	765.325	1.05845E+000	1.05907E+000	7.66788E-004	...........
	759	766.333	1.05852E+000	1.06014E+000	7.64680E-004	...........
	760	767.342	1.05884E+000	1.05913E+000	7.72513E-004	...........
	761	768.35	1.05918E+000	1.05893E+000	7.61772E-004	...........
	762	769.358	1.05933E+000	1.05862E+000	7.62747E-004	...........
	763	770.367	1.05924E+000	1.05824E+000	7.62438E-004	...........
	764	771.375	1.05898E+000	1.05759E+000	7.65738E-004	...........
	765	772.383	1.05864E+000	1.05868E+000	7.62638E-004	...........
	766	773.392	1.05835E+000	1.05825E+000	7.58997E-004	...........
	767	774.4	1.05823E+000	1.05839E+000	7.62730E-004	...........
	768	775.408	1.05826E+000	1.05937E+000	7.60289E-004	...........
	769	776.417	1.05839E+000	1.05804E+000	7.59847E-004	...........
	770	777.425	1.05853E+000	1.05839E+000	7.61705E-004	...........
	771	778.433	1.05856E+000	1.05782E+000	7.64663E-004	...........
	772	779.442	1.05845E+000	1.05836E+000	7.66388E-004	...........
	773	780.45	1.05828E+000	1.05735E+000	7.63222E-004	...........
	774	781.458	1.05811E+000	1.05783E+000	7.70463E-004	...........
	775	782.467	1.05796E+000	1.05844E+000	7.65547E-004	...........
	776	783.475	1.05790E+000	1.05874E+000	7.65513E-004	...........
	777	784.483	1.05804E+000	1.05961E+000	7.63430E-004	...........
	778	785.492	1.05837E+000	1.05979E+000	7.69888E-004	...........
	779	786.5	1.05880E+000	1.05890E+000	7.62330E-004	...........
	780	787.508	1.05915E+000	1.05877E+000	7.59313E-004	...........
	781	788.517	1.05927E+000	1.05936E+000	7.59264E-004	...........
	782	789.525	1.05920E+000	1.05882E+000	7.59122E-004	...........
	783	790.533	1.05909E+000	1.05818E+000	7.66980E-004	...........
	784	791.542	1.05893E+000	1.05713E+000	7.61472E-004	...........
	785	792.55	1.05864E+000	1.05929E+000	7.61047E-004	...........
	786	793.558	1.05839E+000	1.05969E+000	7.60238E-004	...........
	787	794.567	1.05846E+000	1.06125E+000	7.53897E-004	...........
	788	795.575	1.05891E+000	1.05784E+000	7.64980E-004	...........
	789	796.583	1.05935E+000	1.05790E+000	7.68188E-004	...........
	790	797.592	1.05934E+000	1.05762E+000	7.67488E-004	...........
	791	798.6	1.05887E+000	1.05775E+000	7.67972E-004	...........
	792	799.608	1.05828E+000	1.05672E+000	7.64380E-004	...........
	793	800.617	1.05782E+000	1.05805E+000	7.65880E-004	...........
	794	801.625	1.05758E+000	1.05899E+000	7.63022E-004	...........
	795	802.633	1.05762E+000	1.05808E+000	7.65130E-004	...........
	796	803.642	1.05788E+000	1.05759E+000	7.69455E-004	...........
	797	804.65	1.05808E+000	1.05748E+000	7.62388E-004	...........
	798	805.658	1.05805E+000	1.05813E+000	7.55738E-004	...........
	799	806.667	1.05792E+000	1.05798E+000	7.66280E-004	...........
	800	807.675	1.05784E+000	1.05741E+000	7.66572E-004	...........
	801	808.683	1.05781E+000	1.05736E+000	7.68488E-004	...........
	802	809.692	1.05772E+000	1.05618E+000	7.76030E-004	...........
	803	810.7	1.05745E+000	1.05536E+000	7.65163E-004	...........
	804	811.708	1.05703E+000	1.05815E+000	7.70197E-004	...........
	805	812.717	1.05672E+000	1.05846E+000	7.60088E-004	...........
	806	813.725	1.05684E+000	1.05816E+000	7.70122E-004	...........
	807	814.733	1.05733E+000	1.05885E+000	7.71288E-004	...........
	808	815.742	1.05789E+000	1.05887E+000	7.69555E-004	...........
	809	816.75	1.05832E+000	1.05801E+000	7.70672E-004	...........
	810	817.758	1.05853E+000	1.05847E+000	7.66863E-004	...........
	811	818.767	1.05853E+000	1.05749E+000	7.76813E-004	...........
	812	819.775	1.05838E+000	1.05793E+000	7.72013E-004	...........
	813	820.783	1.05817E+000	1.05842E+000	7.69522E-004	...........
	814	821.792	1.05807E+000	1.05966E+000	7.72022E-004	...........
	815	822.8	1.05823E+000	1.06058E+000	7.60455E-004	...........
	816	823.808	1.05869E+000	1.05895E+000	7.68047E-004	...........
	817	824.817	1.05921E+000	1.05942E+000	7.70363E-004	...........
	818	825.825	1.05949E+000	1.05895E+000	7.70155E-004	...........
	819	826.833	1.05952E+000	1.06081E+000	7.65855E-004	...........
	820	827.842	1.05948E+000	1.05786E+000	7.68647E-004	...........
	821	828.85	1.05941E+000	1.05695E+000	7.63305E-004	...........
	822	829.858	1.05907E+000	1.05746E+000	7.73597E-004	...........
	823	830.867	1.05846E+000	1.05782E+000	7.64930E-004	...........
	824	831.875	1.05794E+000	1.05922E+000	7.66155E-004	...........
	825	832.883	1.05780E+000	1.05877E+000	7.62755E-004	...........
	826	833.892	1.05807E+000	1.05937E+000	7.68205E-004	...........
	827	834.9	1.05847E+000	1.05820E+000	7.71797E-004	...........
	828	835.908	1.05874E+000	1.05826E+000	7.71263E-004	...........
	829	836.917	1.05877E+000	1.05858E+000	7.68230E-004	...........
	830	837.925	1.05864E+000	1.05849E+000	7.64505E-004	...........
	831	838.933	1.05849E+000	1.05727E+000	7.59338E-004	...........
	832	839.942	1.05834E+000	1.05797E+000	7.70697E-004	...........
	833	840.95	1.05814E+000	1.05811E+000	7.71305E-004	...........
	834	841.958	1.05799E+000	1.05816E+000	7.66338E-004	...........
	835	842.967	1.05795E+000	1.05815E+000	7.68997E-004	...........
	836	843.975	1.05801E+000	1.05816E+000	7.74605E-004	...........
	837	844.983	1.05809E+000	1.05839E+000	7.71913E-004	...........
	838	845.992	1.05816E+000	1.05849E+000	7.72613E-004	...........
	839	847	1.05824E+000	1.05839E+000	7.70138E-004	...........
	840	848.008	1.05831E+000	1.05767E+000	7.67705E-004	...........
	841	849.017	1.05829E+000	1.05748E+000	7.68272E-004	...........
	842	850.025	1.05815E+000	1.05837E+000	7.74097E-004	...........
	843	851.033	1.05800E+000	1.05855E+000	7.61388E-004	...........
	844	852.042	1.05801E+000	1.05899E+000	7.60197E-004	...........
	845	853.05	1.05820E+000	1.05880E+000	7.64647E-004	...........
	846	854.058	1.05848E+000	1.05958E+000	7.69705E-004	...........
	847	855.067	1.05877E+000	1.05940E+000	7.64763E-004	...........
	848	856.075	1.05904E+000	1.05941E+000	7.62947E-004	...........
	849	857.083	1.05924E+000	1.05919E+000	7.63097E-004	...........
	850	858.092	1.05933E+000	1.05869E+000	7.61738E-004	...........
	851	859.1	1.05926E+000	1.05756E+000	7.73655E-004	...........
	852	860.108	1.05898E+000	1.05758E+000	7.72472E-004	...........
	853	861.117	1.05855E+000	1.05770E+000	7.73688E-004	...........
	854	862.125	1.05810E+000	1.05753E+000	7.76255E-004	...........
	855	863.133	1.05780E+000	1.05782E+000	7.77405E-004	...........
	856	864.142	1.05767E+000	1.05819E+000	7.75372E-004	...........
	857	865.15	1.05770E+000	1.05804E+000	7.71530E-004	...........
	858	866.158	1.05782E+000	1.05797E+000	7.69263E-004	...........
	859	867.167	1.05790E+000	1.05611E+000	7.67980E-004	...........
	860	868.175	1.05780E+000	1.05730E+000	7.67363E-004	...........
	861	869.183	1.05752E+000	1.05779E+000	7.72772E-004	...........
	862	870.192	1.05731E+000	1.05795E+000	7.69355E-004	...........
	863	871.2	1.05735E+000	1.05896E+000	7.69005E-004	...........
	864	872.208	1.05764E+000	1.05783E+000	7.73705E-004	...........
	865	873.217	1.05796E+000	1.05781E+000	7.68722E-004	...........
	866	874.225	1.05812E+000	1.05760E+000	7.71222E-004	...........
	867	875.233	1.05807E+000	1.05768E+000	7.73938E-004	...........
	868	876.242	1.05792E+000	1.05817E+000	7.64655E-004	...........
	869	877.25	1.05781E+000	1.05725E+000	7.70980E-004	...........
	870	878.258	1.05776E+000	1.05780E+000	7.70763E-004	...........
	871	879.267	1.05772E+000	1.05761E+000	7.76272E-004	...........
	872	880.275	1.05769E+000	1.05819E+000	7.74847E-004	...........
	873	881.283	1.05772E+000	1.05817E+000	7.65363E-004	...........
	874	882.292	1.05782E+000	1.05808E+000	7.67555E-004	...........
	875	883.3	1.05796E+000	1.05831E+000	7.65188E-004	...........
	876	884.308	1.05809E+000	1.05848E+000	7.65580E-004	...........
	877	885.317	1.05821E+000	1.05914E+000	7.68530E-004	...........
	878	886.325	1.05836E+000	1.05854E+000	7.62330E-004	...........
	879	887.333	1.05854E+000	1.05849E+000	7.63880E-004	...........
	880	888.342	1.05865E+000	1.05881E+000	7.67972E-004	...........
	881	889.35	1.05869E+000	1.05917E+000	7.70538E-004	...........
	882	890.358	1.05870E+000	1.05734E+000	7.66197E-004	...........
	883	891.367	1.05863E+000	1.05711E+000	7.67422E-004	...........
	884	892.375	1.05834E+000	1.05706E+000	7.66455E-004	...........
	885	893.383	1.05789E+000	1.05721E+000	7.69930E-004	...........
	886	894.392	1.05747E+000	1.05671E+000	7.62130E-004	...........
	887	895.4	1.05719E+000	1.05706E+000	7.64363E-004	...........
	888	896.408	1.05703E+000	1.05696E+000	7.64863E-004	...........
	889	897.417	1.05698E+000	1.05774E+000	7.67405E-004	...........
	890	898.425	1.05702E+000	1.05673E+000	7.66280E-004	...........
	891	899.433	1.05711E+000	1.05749E+000	7.69122E-004	...........
	892	900.442	1.05720E+000	1.05804E+000	7.72830E-004	...........
	893	901.45	1.05730E+000	1.05698E+000	7.64205E-004	...........
	894	902.458	1.05741E+000	1.05797E+000	7.67955E-004	...........
	895	903.467	1.05751E+000	1.05784E+000	7.75538E-004	...........
	896	904.475	1.05760E+000	1.05827E+000	7.68788E-004	...........
	897	905.483	1.05774E+000	1.05806E+000	7.68888E-004	...........
	898	906.492	1.05790E+000	1.05804E+000	7.70880E-004	...........
	899	907.5	1.05801E+000	1.05765E+000	7.75630E-004	...........
	900	908.508	1.05803E+000	1.05809E+000	7.71438E-004	...........
	901	909.517	1.05800E+000	1.05855E+000	7.71505E-004	...........
	902	910.525	1.05801E+000	1.05805E+000	7.72038E-004	...........
	903	911.533	1.05810E+000	1.05854E+000	7.66297E-004	...........
	904	912.542	1.05821E+000	1.05842E+000	7.74172E-004	...........
	905	913.55	1.05832E+000	1.05921E+000	7.74747E-004	...........
	906	914.558	1.05842E+000	1.05683E+000	7.73388E-004	...........
	907	915.567	1.05840E+000	1.05712E+000	7.69913E-004	...........
	908	916.575	1.05813E+000	1.05672E+000	7.73538E-004	...........
	909	917.583	1.05769E+000	1.05761E+000	7.85855E-004	...........
	910	918.592	1.05731E+000	1.05640E+000	7.79397E-004	...........
	911	919.6	1.05706E+000	1.05563E+000	7.72788E-004	...........
	912	920.608	1.05685E+000	1.05764E+000	7.72763E-004	...........
	913	921.617	1.05670E+000	1.05793E+000	7.72688E-004	...........
	914	922.625	1.05677E+000	1.05725E+000	7.75438E-004	...........
	915	923.633	1.05705E+000	1.05712E+000	7.72813E-004	...........
	916	924.642	1.05728E+000	1.05734E+000	7.74263E-004	...........
	917	925.65	1.05737E+000	1.05779E+000	7.75538E-004	...........
	918	926.658	1.05740E+000	1.05794E+000	7.79213E-004	...........
	919	927.667	1.05749E+000	1.05773E+000	7.76022E-004	...........
	920	928.675	1.05761E+000	1.05699E+000	7.70063E-004	...........
	921	929.683	1.05765E+000	1.05737E+000	7.66455E-004	...........
	922	930.692	1.05756E+000	1.05772E+000	7.71022E-004	...........
	923	931.7	1.05748E+000	1.05802E+000	7.69447E-004	...........
	924	932.708	1.05751E+000	1.05823E+000	7.67180E-004	...........
	925	933.717	1.05768E+000	1.05840E+000	7.65747E-004	...........
	926	934.725	1.05791E+000	1.05817E+000	7.67013E-004	...........
	927	935.733	1.05811E+000	1.05838E+000	7.77863E-004	...........
	928	936.742	1.05824E+000	1.05853E+000	7.71672E-004	...........
	929	937.75	1.05830E+000	1.05779E+000	7.74605E-004	...........
	930	938.758	1.05831E+000	1.05851E+000	7.68280E-004	...........
	931	939.767	1.05835E+000	1.06157E+000	7.60938E-004	...........
	932	940.775	1.05856E+000	1.05710E+000	7.69213E-004	...........
	933	941.783	1.05886E+000	1.05738E+000	7.70122E-004	...........
	934	942.792	1.05882E+000	1.05690E+000	7.62813E-004	...........
	935	943.8	1.05832E+000	1.05651E+000	7.66780E-004	...........
	936	944.808	1.05767E+000	1.05730E+000	7.67622E-004	...........
	937	945.817	1.05720E+000	1.05751E+000	7.68663E-004	...........
	938	946.825	1.05702E+000	1.05699E+000	7.60747E-004	...........
	939	947.833	1.05705E+000	1.05667E+000	7.68563E-004	...........
	940	948.842	1.05712E+000	1.05841E+000	7.69263E-004	...........
	941	949.85	1.05720E+000	1.05789E+000	7.72630E-004	...........
	942	950.86	1.05739E+000	1.05762E+000	7.71055E-004	...........
	943	951.87	1.05761E+000	1.05764E+000	7.73272E-004	...........
	944	952.88	1.05774E+000	1.05789E+000	7.63663E-004	...........
	945	953.88	1.05778E+000	1.05810E+000	7.73630E-004	...........
	946	954.89	1.05780E+000	1.05786E+000	7.66247E-004	...........
	947	955.9	1.05786E+000	1.05802E+000	7.61797E-004	...........
	948	956.91	1.05791E+000	1.05750E+000	7.65247E-004	...........
	949	957.92	1.05789E+000	1.05692E+000	7.70547E-004	...........
	950	958.92	1.05776E+000	1.05770E+000	7.69463E-004	...........
	951	959.93	1.05757E+000	1.05703E+000	7.67622E-004	...........
	952	960.94	1.05743E+000	1.05803E+000	7.67397E-004	...........
	953	961.95	1.05739E+000	1.05744E+000	7.66647E-004	...........
	954	962.96	1.05746E+000	1.05763E+000	7.65913E-004	...........
	955	963.97	1.05754E+000	1.05767E+000	7.59047E-004	...........
	956	964.97	1.05758E+000	1.05662E+000	7.61705E-004	...........
	957	965.98	1.05752E+000	1.05765E+000	7.65980E-004	...........
	958	966.99	1.05741E+000	1.05730E+000	7.63155E-004	...........
	959	968	1.05729E+000	1.05571E+000	7.63013E-004	...........
	960	969.01	1.05714E+000	1.05713E+000	7.65997E-004	...........
	961	970.02	1.05694E+000	1.05707E+000	7.64888E-004	...........
	962	971.02	1.05681E+000	1.05763E+000	7.75663E-004	...........
	963	972.03	1.05688E+000	1.05698E+000	7.69072E-004	...........
	964	973.04	1.05705E+000	1.05746E+000	7.72838E-004	...........
	965	974.05	1.05717E+000	1.05587E+000	7.64005E-004	...........
	966	975.06	1.05712E+000	1.05646E+000	7.74505E-004	...........
	967	976.07	1.05691E+000	1.05723E+000	7.71580E-004	...........
	968	977.08	1.05671E+000	1.05648E+000	7.74155E-004	...........
	969	978.08	1.05666E+000	1.05730E+000	7.67022E-004	...........
	970	979.09	1.05675E+000	1.05746E+000	7.74322E-004	...........
	971	980.1	1.05691E+000	1.05757E+000	7.75230E-004	...........
	972	981.11	1.05713E+000	1.05786E+000	7.65738E-004	...........
	973	982.12	1.05737E+000	1.05798E+000	7.60813E-004	...........
	974	983.13	1.05757E+000	1.05719E+000	7.60697E-004	...........
	975	984.13	1.05768E+000	1.05734E+000	7.63388E-004	...........
	976	985.14	1.05763E+000	1.05680E+000	7.62922E-004	...........
	977	986.15	1.05747E+000	1.05747E+000	7.69872E-004	...........
	978	987.16	1.05730E+000	1.05723E+000	7.65455E-004	...........
	979	988.17	1.05724E+000	1.05816E+000	7.63747E-004	...........
	980	989.17	1.05733E+000	1.05836E+000	7.60580E-004	...........
	981	990.18	1.05756E+000	1.05794E+000	7.75180E-004	...........
	982	991.19	1.05783E+000	1.05800E+000	7.69605E-004	...........
	983	992.2	1.05802E+000	1.05866E+000	7.66638E-004	...........
	984	993.21	1.05812E+000	1.05802E+000	7.64597E-004	...........
	985	994.22	1.05816E+000	1.05636E+000	7.64505E-004	...........
	986	995.22	1.05803E+000	1.05733E+000	7.68455E-004	...........
	987	996.23	1.05774E+000	1.05834E+000	7.69322E-004	...........
	988	997.24	1.05752E+000	1.05854E+000	7.68580E-004	...........
	989	998.25	1.05763E+000	1.05932E+000	7.69213E-004	...........
	990	999.26	1.05797E+000	1.05671E+000	7.70755E-004	...........
	991	1000.27	1.05821E+000	1.05699E+000	7.66847E-004	...........
	992	1001.27	1.05809E+000	1.05715E+000	7.74038E-004	...........
	993	1002.28	1.05770E+000	1.05737E+000	7.74530E-004	...........
	994	1003.29	1.05734E+000	1.05616E+000	7.77138E-004	...........
	995	1004.3	1.05707E+000	1.05501E+000	7.68330E-004	...........
	996	1005.31	1.05674E+000	1.05696E+000	7.61805E-004	...........
	997	1006.32	1.05639E+000	1.05623E+000	7.70722E-004	...........
	998	1007.33	1.05621E+000	1.05678E+000	7.66438E-004	...........
	999	1008.33	1.05625E+000	1.05638E+000	7.69230E-004	...........
	1000	1009.34	1.05638E+000	1.05674E+000	7.64963E-004	...........
	1001	1010.35	1.05651E+000	1.05714E+000	7.66222E-004	...........
	1002	1011.36	1.05664E+000	1.05731E+000	7.64847E-004	...........
	1003	1012.37	1.05682E+000	1.05778E+000	7.64380E-004	...........
	1004	1013.38	1.05705E+000	1.05734E+000	7.67005E-004	...........
	1005	1014.38	1.05727E+000	1.05708E+000	7.58430E-004	...........
	1006	1015.39	1.05740E+000	1.05827E+000	7.57772E-004	...........
	1007	1016.4	1.05748E+000	1.05811E+000	7.64188E-004	...........
	1008	1017.41	1.05760E+000	1.05709E+000	7.65272E-004	...........
	1009	1018.42	1.05770E+000	1.05693E+000	7.63430E-004	...........
	1010	1019.42	1.05763E+000	1.05709E+000	7.69438E-004	...........
	1011	1020.43	1.05739E+000	1.05557E+000	7.62805E-004	...........
	1012	1021.44	1.05705E+000	1.05632E+000	7.58805E-004	...........
	1013	1022.45	1.05668E+000	1.05649E+000	7.62955E-004	...........
	1014	1023.46	1.05640E+000	1.05600E+000	7.74480E-004	...........
	1015	1024.47	1.05628E+000	1.05725E+000	7.62730E-004	...........
	1016	1025.47	1.05632E+000	1.05637E+000	7.61288E-004	...........
	1017	1026.48	1.05645E+000	1.05698E+000	7.58855E-004	...........
	1018	1027.49	1.05661E+000	1.05739E+000	7.63955E-004	...........
	1019	1028.5	1.05677E+000	1.05720E+000	7.53339E-004	...........
	1020	1029.51	1.05698E+000	1.05834E+000	7.63680E-004	...........
	1021	1030.52	1.05719E+000	1.05554E+000	7.67030E-004	...........
	1022	1031.53	1.05726E+000	1.05660E+000	7.66630E-004	...........
	1023	1032.53	1.05708E+000	1.05592E+000	7.65422E-004	...........
	1024	1033.54	1.05673E+000	1.05658E+000	7.64163E-004	...........
	1025	1034.55	1.05646E+000	1.05694E+000	7.54780E-004	...........
	1026	1035.56	1.05638E+000	1.05646E+000	7.61972E-004	...........
	1027	1036.57	1.05646E+000	1.05682E+000	7.54772E-004	...........
	1028	1037.57	1.05658E+000	1.05676E+000	7.58414E-004	...........
	1029	1038.58	1.05667E+000	1.05673E+000	7.53364E-004	...........
	1030	1039.59	1.05670E+000	1.05598E+000	7.65080E-004	...........
	1031	1040.6	1.05664E+000	1.05551E+000	7.63063E-004	...........
	1032	1041.61	1.05645E+000	1.05669E+000	7.59380E-004	...........
	1033	1042.62	1.05625E+000	1.05646E+000	7.68072E-004	...........
	1034	1043.63	1.05619E+000	1.05646E+000	7.67397E-004	...........
	1035	1044.63	1.05627E+000	1.05663E+000	7.62305E-004	...........
	1036	1045.64	1.05639E+000	1.05633E+000	7.74763E-004	...........
	1037	1046.65	1.05649E+000	1.05763E+000	7.71780E-004	...........
	1038	1047.66	1.05661E+000	1.05711E+000	7.61255E-004	...........
	1039	1048.67	1.05679E+000	1.05659E+000	7.71905E-004	...........
	1040	1049.68	1.05695E+000	1.05716E+000	7.66238E-004	...........
	1041	1050.68	1.05701E+000	1.05724E+000	7.64147E-004	...........
	1042	1051.69	1.05705E+000	1.05853E+000	7.57222E-004	...........
	1043	1052.7	1.05721E+000	1.05771E+000	7.62397E-004	...........
	1044	1053.71	1.05748E+000	1.05741E+000	7.74788E-004	...........
	1045	1054.72	1.05768E+000	1.05724E+000	7.70180E-004	...........
	1046	1055.72	1.05768E+000	1.05668E+000	7.63072E-004	...........
	1047	1056.73	1.05750E+000	1.05723E+000	7.64663E-004	...........
	1048	1057.74	1.05726E+000	1.05669E+000	7.67947E-004	...........
	1049	1058.75	1.05709E+000	1.05800E+000	7.65747E-004	...........
	1050	1059.76	1.05711E+000	1.05922E+000	7.67722E-004	...........
	1051	1060.77	1.05736E+000	1.05650E+000	7.79713E-004	...........
	1052	1061.78	1.05766E+000	1.05755E+000	7.68163E-004	...........
	1053	1062.78	1.05776E+000	1.05751E+000	7.72297E-004	...........
	1054	1063.79	1.05766E+000	1.05807E+000	7.71055E-004	...........
	1055	1064.8	1.05759E+000	1.05789E+000	7.74397E-004	...........
	1056	1065.81	1.05765E+000	1.05815E+000	7.70272E-004	...........
	1057	1066.82	1.05778E+000	1.05749E+000	7.79930E-004	...........
	1058	1067.82	1.05785E+000	1.05665E+000	7.77505E-004	...........
	1059	1068.83	1.05771E+000	1.05546E+000	7.75930E-004	...........
	1060	1069.84	1.05734E+000	1.05834E+000	7.65155E-004	...........
	1061	1070.85	1.05699E+000	1.05730E+000	7.70938E-004	...........
	1062	1071.86	1.05693E+000	1.05709E+000	7.78647E-004	...........
	1063	1072.87	1.05709E+000	1.05727E+000	7.73005E-004	...........
	1064	1073.88	1.05722E+000	1.05732E+000	7.77580E-004	...........
	1065	1074.88	1.05726E+000	1.05678E+000	7.67947E-004	...........
	1066	1075.89	1.05721E+000	1.05634E+000	7.77097E-004	...........
	1067	1076.9	1.05706E+000	1.05618E+000	7.76097E-004	...........
	1068	1077.91	1.05681E+000	1.05613E+000	7.78122E-004	...........
	1069	1078.92	1.05642E+000	1.05027E+000	7.71305E-004	...........
	1070	1079.93	1.05574E+000	1.05658E+000	7.70080E-004	...........
	1071	1080.93	1.05495E+000	1.05662E+000	7.70238E-004	...........
	1072	1081.94	1.05467E+000	1.05674E+000	7.68172E-004	...........
	1073	1082.95	1.05511E+000	1.05627E+000	7.76855E-004	...........
	1074	1083.96	1.05580E+000	1.05661E+000	7.71788E-004	...........
	1075	1084.97	1.05630E+000	1.05703E+000	7.66755E-004	...........
	1076	1085.97	1.05655E+000	1.05643E+000	7.78688E-004	...........
	1077	1086.98	1.05663E+000	1.05538E+000	7.67747E-004	...........
	1078	1087.99	1.05648E+000	1.05251E+000	7.81688E-004	...........
	1079	1089	1.05597E+000	1.05629E+000	7.82513E-004	...........
	1080	1090.01	1.05535E+000	1.05685E+000	7.64872E-004	...........
	1081	1091.02	1.05515E+000	1.05667E+000	7.72538E-004	...........
	1082	1092.03	1.05554E+000	1.05801E+000	7.74138E-004	...........
	1083	1093.03	1.05619E+000	1.05580E+000	7.80238E-004	...........
	1084	1094.04	1.05667E+000	1.05587E+000	7.83271E-004	...........
	1085	1095.05	1.05675E+000	1.05597E+000	7.74138E-004	...........
	1086	1096.06	1.05651E+000	1.05622E+000	7.79530E-004	...........
	1087	1097.07	1.05623E+000	1.05591E+000	7.81180E-004	...........
	1088	1098.07	1.05608E+000	1.05660E+000	7.80930E-004	...........
	1089	1099.08	1.05607E+000	1.05590E+000	7.78088E-004	...........
	1090	1100.09	1.05613E+000	1.05637E+000	7.76805E-004	...........
	1091	1101.1	1.05619E+000	1.05651E+000	7.70472E-004	...........
	1092	1102.11	1.05625E+000	1.05665E+000	7.69347E-004	...........
	1093	1103.12	1.05634E+000	1.05684E+000	7.70338E-004	...........
	1094	1104.13	1.05648E+000	1.05681E+000	7.61172E-004	...........
	1095	1105.13	1.05661E+000	1.05624E+000	7.74063E-004	...........
	1096	1106.14	1.05667E+000	1.05651E+000	7.71980E-004	...........
	1097	1107.15	1.05662E+000	1.05587E+000	7.68313E-004	...........
	1098	1108.16	1.05644E+000	1.05388E+000	7.69047E-004	...........
	1099	1109.17	1.05610E+000	1.05653E+000	7.75088E-004	...........
	1100	1110.18	1.05573E+000	1.05619E+000	7.79038E-004	...........
	1101	1111.18	1.05560E+000	1.05663E+000	7.76272E-004	...........
	1102	1112.19	1.05579E+000	1.05657E+000	7.70980E-004	...........
	1103	1113.2	1.05610E+000	1.05600E+000	7.79547E-004	...........
	1104	1114.21	1.05631E+000	1.05613E+000	7.73897E-004	...........
	1105	1115.22	1.05634E+000	1.05579E+000	7.76863E-004	...........
	1106	1116.22	1.05624E+000	1.05621E+000	7.76122E-004	...........
	1107	1117.23	1.05611E+000	1.05567E+000	7.66863E-004	...........
	1108	1118.24	1.05602E+000	1.05624E+000	7.76247E-004	...........
	1109	1119.25	1.05599E+000	1.05656E+000	7.72513E-004	...........
	1110	1120.26	1.05604E+000	1.05633E+000	7.76638E-004	...........
	1111	1121.27	1.05619E+000	1.05736E+000	7.76813E-004	...........
	1112	1122.28	1.05640E+000	1.05704E+000	7.65580E-004	...........
	1113	1123.28	1.05666E+000	1.05737E+000	7.78480E-004	...........
	1114	1124.29	1.05688E+000	1.05543E+000	7.66780E-004	...........
	1115	1125.3	1.05690E+000	1.05551E+000	7.67863E-004	...........
	1116	1126.31	1.05663E+000	1.05625E+000	7.71888E-004	...........
	1117	1127.32	1.05624E+000	1.05570E+000	7.72205E-004	...........
	1118	1128.32	1.05598E+000	1.05626E+000	7.75596E-004	...........
	1119	1129.33	1.05591E+000	1.05640E+000	7.80613E-004	...........
	1120	1130.34	1.05599E+000	1.05643E+000	7.79046E-004	...........
	1121	1131.35	1.05615E+000	1.05695E+000	7.76055E-004	...........
	1122	1132.36	1.05634E+000	1.05707E+000	7.68572E-004	...........
	1123	1133.37	1.05656E+000	1.05673E+000	7.69238E-004	...........
	1124	1134.38	1.05674E+000	1.05684E+000	7.67605E-004	...........
	1125	1135.38	1.05684E+000	1.05659E+000	7.69480E-004	...........
	1126	1136.39	1.05685E+000	1.05737E+000	7.68963E-004	...........
	1127	1137.4	1.05683E+000	1.05599E+000	7.69772E-004	...........
	1128	1138.41	1.05680E+000	1.05687E+000	7.71063E-004	...........
	1129	1139.42	1.05674E+000	1.05664E+000	7.74630E-004	...........
	1130	1140.43	1.05667E+000	1.05643E+000	7.77338E-004	...........
	1131	1141.43	1.05663E+000	1.05714E+000	7.70172E-004	...........
	1132	1142.44	1.05665E+000	1.05688E+000	7.73638E-004	...........
	1133	1143.45	1.05671E+000	1.05648E+000	7.75813E-004	...........
	1134	1144.46	1.05677E+000	1.05662E+000	7.82663E-004	...........
	1135	1145.47	1.05675E+000	1.05661E+000	7.72347E-004	...........
	1136	1146.47	1.05669E+000	1.05662E+000	7.70922E-004	...........
	1137	1147.48	1.05662E+000	1.05561E+000	7.76813E-004	...........
	1138	1148.49	1.05651E+000	1.05635E+000	7.74305E-004	...........
	1139	1149.5	1.05637E+000	1.05684E+000	7.65163E-004	...........
	1140	1150.51	1.05630E+000	1.05693E+000	7.65222E-004	...........
	1141	1151.52	1.05641E+000	1.05735E+000	7.66147E-004	...........
	1142	1152.53	1.05665E+000	1.05732E+000	7.73322E-004	...........
	1143	1153.53	1.05693E+000	1.05746E+000	7.67930E-004	...........
	1144	1154.54	1.05715E+000	1.05745E+000	7.69905E-004	...........
	1145	1155.55	1.05728E+000	1.05595E+000	7.71588E-004	...........
	1146	1156.56	1.05723E+000	1.05649E+000	7.69463E-004	...........
	1147	1157.57	1.05697E+000	1.05507E+000	7.71747E-004	...........
	1148	1158.57	1.05656E+000	1.05593E+000	7.81588E-004	...........
	1149	1159.58	1.05616E+000	1.05652E+000	7.82471E-004	...........
	1150	1160.59	1.05593E+000	1.05558E+000	7.73305E-004	...........
	1151	1161.6	1.05591E+000	1.05669E+000	7.73497E-004	...........
	1152	1162.61	1.05600E+000	1.05620E+000	7.81230E-004	...........
	1153	1163.62	1.05611E+000	1.05551E+000	7.71530E-004	...........
	1154	1164.63	1.05614E+000	1.05612E+000	7.80521E-004	...........
	1155	1165.63	1.05609E+000	1.05610E+000	7.78505E-004	...........
	1156	1166.64	1.05604E+000	1.05700E+000	7.73272E-004	...........
	1157	1167.65	1.05611E+000	1.05657E+000	7.66322E-004	...........
	1158	1168.66	1.05626E+000	1.05455E+000	7.75463E-004	...........
	1159	1169.67	1.05627E+000	1.05603E+000	7.73147E-004	...........
	1160	1170.68	1.05608E+000	1.05640E+000	7.73838E-004	...........
	1161	1171.68	1.05590E+000	1.05629E+000	7.76772E-004	...........
	1162	1172.69	1.05593E+000	1.05658E+000	7.79230E-004	...........
	1163	1173.7	1.05611E+000	1.05691E+000	7.76588E-004	...........
	1164	1174.71	1.05635E+000	1.05714E+000	7.67055E-004	...........
	1165	1175.72	1.05661E+000	1.05774E+000	7.73538E-004	...........
	1166	1176.72	1.05688E+000	1.05663E+000	7.73497E-004	...........
	1167	1177.73	1.05708E+000	1.05731E+000	7.69288E-004	...........
	1168	1178.74	1.05717E+000	1.05728E+000	7.74938E-004	...........
	1169	1179.75	1.05717E+000	1.05633E+000	7.84630E-004	...........
	1170	1180.76	1.05710E+000	1.05698E+000	7.76955E-004	...........
	1171	1181.77	1.05699E+000	1.05684E+000	7.70572E-004	...........
	1172	1182.78	1.05690E+000	1.05762E+000	7.79947E-004	...........
	1173	1183.78	1.05691E+000	1.05662E+000	7.73313E-004	...........
	1174	1184.79	1.05696E+000	1.05593E+000	7.77022E-004	...........
	1175	1185.8	1.05690E+000	1.05603E+000	7.82405E-004	...........
	1176	1186.81	1.05666E+000	1.05608E+000	7.77105E-004	...........
	1177	1187.82	1.05636E+000	1.05570E+000	7.83021E-004	...........
	1178	1188.82	1.05613E+000	1.05615E+000	7.85771E-004	...........
	1179	1189.83	1.05600E+000	1.05610E+000	7.85505E-004	...........
	1180	1190.84	1.05594E+000	1.05442E+000	7.77763E-004	...........
	1181	1191.85	1.05583E+000	1.05539E+000	7.71522E-004	...........
	1182	1192.86	1.05560E+000	1.05534E+000	7.74613E-004	...........
	1183	1193.87	1.05538E+000	1.05541E+000	7.71897E-004	...........
	1184	1194.88	1.05527E+000	1.05524E+000	7.71738E-004	...........
	1185	1195.88	1.05529E+000	1.05609E+000	7.77855E-004	...........
	1186	1196.89	1.05538E+000	1.05575E+000	7.74022E-004	...........
	1187	1197.9	1.05552E+000	1.05531E+000	7.71272E-004	...........
	1188	1198.91	1.05563E+000	1.05601E+000	7.73755E-004	...........
	1189	1199.92	1.05568E+000	1.05571E+000	7.72038E-004	...........
	1190	1200.93	1.05570E+000	1.05526E+000	7.71038E-004	...........
	1191	1201.93	1.05567E+000	1.05525E+000	7.76488E-004	...........
	1192	1202.94	1.05559E+000	1.05543E+000	7.70405E-004	...........
	1193	1203.95	1.05547E+000	1.05556E+000	7.68138E-004	...........
	1194	1204.96	1.05542E+000	1.05605E+000	7.77163E-004	...........
	1195	1205.97	1.05550E+000	1.05665E+000	7.80113E-004	...........
	1196	1206.97	1.05571E+000	1.05651E+000	7.75605E-004	...........
	1197	1207.98	1.05601E+000	1.05643E+000	7.72747E-004	...........
	1198	1208.99	1.05627E+000	1.05606E+000	7.74647E-004	...........
	1199	1210	1.05639E+000	1.05659E+000	7.73855E-004	...........
	1200	1211.01	1.05641E+000	1.05677E+000	7.72097E-004	...........
	1201	1212.02	1.05642E+000	1.05597E+000	7.83130E-004	...........
	1202	1213.03	1.05645E+000	1.05728E+000	7.84663E-004	...........
	1203	1214.03	1.05649E+000	1.05557E+000	7.84363E-004	...........
	1204	1215.04	1.05645E+000	1.05468E+000	7.80146E-004	...........
	1205	1216.05	1.05624E+000	1.05609E+000	7.76905E-004	...........
	1206	1217.06	1.05591E+000	1.05611E+000	7.84230E-004	...........
	1207	1218.07	1.05571E+000	1.05529E+000	7.78213E-004	...........
	1208	1219.07	1.05566E+000	1.05489E+000	7.70955E-004	...........
	1209	1220.08	1.05558E+000	1.05479E+000	7.73113E-004	...........
	1210	1221.09	1.05539E+000	1.05513E+000	7.68038E-004	...........
	1211	1222.1	1.05514E+000	1.05339E+000	7.85580E-004	...........
	1212	1223.11	1.05486E+000	1.05434E+000	7.84671E-004	...........
	1213	1224.12	1.05458E+000	1.05577E+000	7.76288E-004	...........
	1214	1225.13	1.05447E+000	1.05478E+000	7.76013E-004	...........
	1215	1226.13	1.05461E+000	1.05555E+000	7.77605E-004	...........
	1216	1227.14	1.05490E+000	1.05607E+000	7.80521E-004	...........
	1217	1228.15	1.05520E+000	1.05572E+000	7.80213E-004	...........
	1218	1229.16	1.05548E+000	1.05558E+000	7.75280E-004	...........
	1219	1230.17	1.05566E+000	1.05588E+000	7.79005E-004	...........
	1220	1231.18	1.05573E+000	1.05504E+000	7.76846E-004	...........
	1221	1232.18	1.05567E+000	1.05482E+000	7.80072E-004	...........
	1222	1233.19	1.05551E+000	1.05518E+000	7.79555E-004	...........
	1223	1234.2	1.05530E+000	1.05523E+000	7.69888E-004	...........
	1224	1235.21	1.05517E+000	1.05589E+000	7.79063E-004	...........
	1225	1236.22	1.05520E+000	1.05586E+000	7.70180E-004	...........
	1226	1237.22	1.05538E+000	1.05582E+000	7.75922E-004	...........
	1227	1238.23	1.05559E+000	1.05572E+000	7.80688E-004	...........
	1228	1239.24	1.05573E+000	1.05537E+000	7.69255E-004	...........
	1229	1240.25	1.05573E+000	1.05495E+000	7.82221E-004	...........
	1230	1241.26	1.05561E+000	1.05513E+000	7.80988E-004	...........
	1231	1242.27	1.05544E+000	1.05689E+000	7.72288E-004	...........
	1232	1243.28	1.05542E+000	1.05545E+000	7.74738E-004	...........
	1233	1244.28	1.05557E+000	1.05533E+000	7.66572E-004	...........
	1234	1245.29	1.05569E+000	1.05512E+000	7.75397E-004	...........
	1235	1246.3	1.05564E+000	1.05472E+000	7.81521E-004	...........
	1236	1247.31	1.05542E+000	1.05507E+000	7.69855E-004	...........
	1237	1248.32	1.05520E+000	1.05550E+000	7.67672E-004	...........
	1238	1249.32	1.05508E+000	1.05469E+000	7.75930E-004	...........
	1239	1250.33	1.05506E+000	1.05479E+000	7.65930E-004	...........
	1240	1251.34	1.05504E+000	1.05545E+000	7.70963E-004	...........
	1241	1252.35	1.05503E+000	1.05558E+000	7.63297E-004	...........
	1242	1253.36	1.05511E+000	1.05579E+000	7.72588E-004	...........
	1243	1254.37	1.05527E+000	1.05489E+000	7.80855E-004	...........
	1244	1255.38	1.05540E+000	1.05533E+000	7.67630E-004	...........
	1245	1256.38	1.05541E+000	1.05553E+000	7.73305E-004	...........
	1246	1257.39	1.05537E+000	1.05572E+000	7.72138E-004	...........
	1247	1258.4	1.05540E+000	1.05580E+000	7.74713E-004	...........
	1248	1259.41	1.05548E+000	1.05471E+000	7.75463E-004	...........
	1249	1260.42	1.05551E+000	1.05560E+000	7.71497E-004	...........
	1250	1261.43	1.05546E+000	1.05543E+000	7.70855E-004	...........
	1251	1262.43	1.05539E+000	1.05553E+000	7.73813E-004	...........
	1252	1263.44	1.05538E+000	1.05510E+000	7.69113E-004	...........
	1253	1264.45	1.05540E+000	1.05592E+000	7.76047E-004	...........
	1254	1265.46	1.05541E+000	1.05477E+000	7.73188E-004	...........
	1255	1266.47	1.05541E+000	1.05569E+000	7.71847E-004	...........
	1256	1267.47	1.05538E+000	1.05515E+000	7.73338E-004	...........
	1257	1268.48	1.05535E+000	1.05565E+000	7.68997E-004	...........
	1258	1269.49	1.05534E+000	1.05468E+000	7.75797E-004	...........
	1259	1270.5	1.05533E+000	1.05582E+000	7.74530E-004	...........
	1260	1271.51	1.05533E+000	1.05648E+000	7.74530E-004	...........
	1261	1272.52	1.05546E+000	1.05708E+000	7.74205E-004	...........
	1262	1273.53	1.05577E+000	1.05472E+000	7.71738E-004	...........
	1263	1274.53	1.05601E+000	1.05474E+000	7.76422E-004	...........
	1264	1275.54	1.05591E+000	1.05535E+000	7.66238E-004	...........
	1265	1276.55	1.05555E+000	1.05397E+000	7.68013E-004	...........
	1266	1277.56	1.05514E+000	1.05403E+000	7.75788E-004	...........
	1267	1278.57	1.05476E+000	1.05384E+000	7.66030E-004	...........
	1268	1279.57	1.05442E+000	1.05499E+000	7.77346E-004	...........
	1269	1280.58	1.05425E+000	1.05481E+000	7.81247E-004	...........
	1270	1281.59	1.05427E+000	1.05232E+000	7.69513E-004	...........
	1271	1282.6	1.05428E+000	1.05554E+000	7.71905E-004	...........
	1272	1283.61	1.05422E+000	1.05523E+000	7.70738E-004	...........
	1273	1284.62	1.05431E+000	1.05540E+000	7.74547E-004	...........
	1274	1285.63	1.05463E+000	1.05536E+000	7.68005E-004	...........
	1275	1286.63	1.05500E+000	1.05582E+000	7.72338E-004	...........
	1276	1287.64	1.05527E+000	1.05446E+000	7.83480E-004	...........
	1277	1288.65	1.05536E+000	1.05524E+000	7.78380E-004	...........
	1278	1289.66	1.05529E+000	1.05504E+000	7.73405E-004	...........
	1279	1290.67	1.05516E+000	1.05503E+000	7.74405E-004	...........
	1280	1291.68	1.05508E+000	1.05485E+000	7.71213E-004	...........
	1281	1292.68	1.05501E+000	1.05399E+000	7.74855E-004	...........
	1282	1293.69	1.05488E+000	1.05470E+000	7.75522E-004	...........
	1283	1294.7	1.05471E+000	1.05483E+000	7.78347E-004	...........
	1284	1295.71	1.05461E+000	1.05507E+000	7.66172E-004	...........
	1285	1296.72	1.05465E+000	1.05549E+000	7.70863E-004	...........
	1286	1297.72	1.05483E+000	1.05566E+000	7.73022E-004	...........
	1287	1298.73	1.05508E+000	1.05561E+000	7.70280E-004	...........
	1288	1299.74	1.05532E+000	1.05530E+000	7.62422E-004	...........
	1289	1300.75	1.05547E+000	1.05555E+000	7.72422E-004	...........
	1290	1301.76	1.05551E+000	1.05533E+000	7.69755E-004	...........
	1291	1302.77	1.05545E+000	1.05325E+000	7.74922E-004	...........
	1292	1303.78	1.05522E+000	1.05473E+000	7.69388E-004	...........
	1293	1304.78	1.05487E+000	1.05486E+000	7.75622E-004	...........
	1294	1305.79	1.05460E+000	1.05508E+000	7.77305E-004	...........
	1295	1306.8	1.05456E+000	1.05459E+000	7.80722E-004	...........
	1296	1307.81	1.05468E+000	1.05531E+000	7.67488E-004	...........
	1297	1308.82	1.05482E+000	1.05513E+000	7.69155E-004	...........
	1298	1309.82	1.05496E+000	1.05580E+000	7.68063E-004	...........
	1299	1310.83	1.05511E+000	1.05530E+000	7.67830E-004	...........
	1300	1311.84	1.05528E+000	1.05529E+000	7.66455E-004	...........
	1301	1312.85	1.05538E+000	1.05546E+000	7.63622E-004	...........
	1302	1313.86	1.05538E+000	1.05393E+000	7.59622E-004	...........
	1303	1314.87	1.05524E+000	1.05481E+000	7.65547E-004	...........
	1304	1315.88	1.05501E+000	1.05505E+000	7.67830E-004	...........
	1305	1316.88	1.05485E+000	1.05636E+000	7.68663E-004	...........
	1306	1317.89	1.05493E+000	1.05547E+000	7.73780E-004	...........
	1307	1318.9	1.05520E+000	1.05503E+000	7.75722E-004	...........
	1308	1319.91	1.05542E+000	1.05484E+000	7.68055E-004	...........
	1309	1320.92	1.05538E+000	1.05340E+000	7.69697E-004	...........
	1310	1321.93	1.05509E+000	1.05515E+000	7.60063E-004	...........
	1311	1322.93	1.05475E+000	1.05538E+000	7.70305E-004	...........
	1312	1323.94	1.05464E+000	1.05568E+000	7.59305E-004	...........
	1313	1324.95	1.05483E+000	1.05589E+000	7.67938E-004	...........
	1314	1325.96	1.05518E+000	1.05530E+000	7.61630E-004	...........
	1315	1326.97	1.05541E+000	1.05314E+000	7.73238E-004	...........
	1316	1327.97	1.05533E+000	1.05510E+000	7.75838E-004	...........
	1317	1328.98	1.05500E+000	1.05539E+000	7.69013E-004	...........
	1318	1329.99	1.05478E+000	1.05620E+000	7.72238E-004	...........
	1319	1331	1.05492E+000	1.05616E+000	7.79871E-004	...........
	1320	1332.01	1.05533E+000	1.05671E+000	7.70822E-004	...........
	1321	1333.02	1.05562E+000	1.04729E+000	7.67338E-004	...........
	1322	1334.03	1.05508E+000	1.04699E+000	7.69980E-004	...........
	1323	1335.03	1.05324E+000	1.04599E+000	7.67522E-004	...........
	1324	1336.04	1.05060E+000	1.04537E+000	7.70455E-004	...........
	1325	1337.05	1.04823E+000	1.04740E+000	7.66555E-004	...........
	1326	1338.06	1.04683E+000	1.04790E+000	7.68130E-004	...........
	1327	1339.07	1.04648E+000	1.04804E+000	7.72538E-004	...........
	1328	1340.07	1.04683E+000	1.04758E+000	7.71088E-004	...........
	1329	1341.08	1.04735E+000	1.04871E+000	7.70672E-004	...........
	1330	1342.09	1.04777E+000	1.04911E+000	7.72930E-004	...........
	1331	1343.1	1.04812E+000	1.04812E+000	7.76796E-004	...........
	1332	1344.11	1.04838E+000	1.04796E+000	7.72013E-004	...........
	1333	1345.12	1.04840E+000	1.04488E+000	7.69588E-004	...........
	1334	1346.13	1.04804E+000	1.04794E+000	7.66672E-004	...........
	1335	1347.13	1.04759E+000	1.05293E+000	7.66947E-004	...........
	1336	1348.14	1.04781E+000	1.05509E+000	7.65247E-004	...........
	1337	1349.15	1.04919E+000	1.05337E+000	7.67697E-004	...........
	1338	1350.16	1.05117E+000	1.05328E+000	7.67997E-004	...........
	1339	1351.17	1.05275E+000	1.05438E+000	7.77213E-004	...........
	1340	1352.18	1.05358E+000	1.05477E+000	7.73813E-004	...........
	1341	1353.18	1.05397E+000	1.05494E+000	7.80946E-004	...........
	1342	1354.19	1.05427E+000	1.05469E+000	7.68413E-004	...........
	1343	1355.2	1.05452E+000	1.05431E+000	7.71097E-004	...........
	1344	1356.21	1.05465E+000	1.05432E+000	7.80146E-004	...........
	1345	1357.22	1.05462E+000	1.05458E+000	7.76205E-004	...........
	1346	1358.22	1.05453E+000	1.05432E+000	7.73047E-004	...........
	1347	1359.23	1.05434E+000	1.04833E+000	7.70130E-004	...........
	1348	1360.24	1.05368E+000	1.04702E+000	7.72438E-004	...........
	1349	1361.25	1.05216E+000	1.04529E+000	7.76996E-004	...........
	1350	1362.26	1.05000E+000	1.04486E+000	7.76822E-004	...........
	1351	1363.27	1.04784E+000	1.04422E+000	7.71997E-004	...........
	1352	1364.28	1.04624E+000	1.04771E+000	7.72188E-004	...........
	1353	1365.28	1.04552E+000	1.04790E+000	7.78313E-004	...........
	1354	1366.29	1.04571E+000	1.04703E+000	7.77638E-004	...........
	1355	1367.3	1.04639E+000	1.04747E+000	7.73163E-004	...........
	1356	1368.31	1.04701E+000	1.04790E+000	7.74938E-004	...........
	1357	1369.32	1.04738E+000	1.04789E+000	7.71272E-004	...........
	1358	1370.32	1.04759E+000	1.04840E+000	7.75513E-004	...........
	1359	1371.33	1.04781E+000	1.04906E+000	7.70413E-004	...........
	1360	1372.34	1.04807E+000	1.04868E+000	7.68438E-004	...........
	1361	1373.35	1.04842E+000	1.05120E+000	7.70188E-004	...........
	1362	1374.36	1.04896E+000	1.05410E+000	7.72755E-004	...........
	1363	1375.37	1.04987E+000	1.05238E+000	7.72455E-004	...........
	1364	1376.38	1.05108E+000	1.05346E+000	7.71697E-004	...........
	1365	1377.38	1.05216E+000	1.05369E+000	7.70505E-004	...........
	1366	1378.39	1.05290E+000	1.05439E+000	7.79830E-004	...........
	1367	1379.4	1.05339E+000	1.05440E+000	7.69213E-004	...........
	1368	1380.41	1.05379E+000	1.05505E+000	7.79296E-004	...........
	1369	1381.42	1.05417E+000	1.05530E+000	7.62655E-004	...........
	1370	1382.43	1.05454E+000	1.05534E+000	7.64213E-004	...........
	1371	1383.43	1.05487E+000	1.05512E+000	7.68497E-004	...........
	1372	1384.44	1.05509E+000	1.05464E+000	7.74497E-004	...........
	1373	1385.45	1.05515E+000	1.05493E+000	7.80521E-004	...........
	1374	1386.46	1.05507E+000	1.05467E+000	7.73313E-004	...........
	1375	1387.47	1.05492E+000	1.05381E+000	7.74655E-004	...........
	1376	1388.47	1.05472E+000	1.05397E+000	7.71305E-004	...........
	1377	1389.48	1.05449E+000	1.05478E+000	7.80238E-004	...........
	1378	1390.49	1.05431E+000	1.05462E+000	7.76155E-004	...........
	1379	1391.5	1.05432E+000	1.05529E+000	7.65330E-004	...........
	1380	1392.51	1.05450E+000	1.05521E+000	7.65038E-004	...........
	1381	1393.52	1.05476E+000	1.05552E+000	7.67497E-004	...........
	1382	1394.53	1.05500E+000	1.05431E+000	7.72597E-004	...........
	1383	1395.53	1.05510E+000	1.05408E+000	7.64788E-004	...........
	1384	1396.54	1.05497E+000	1.05467E+000	7.71197E-004	...........
	1385	1397.55	1.05472E+000	1.05425E+000	7.64322E-004	...........
	1386	1398.56	1.05451E+000	1.05415E+000	7.77922E-004	...........
	1387	1399.57	1.05437E+000	1.05377E+000	7.66788E-004	...........
	1388	1400.57	1.05423E+000	1.05310E+000	7.74147E-004	...........
	1389	1401.58	1.05404E+000	1.05424E+000	7.66372E-004	...........
	1390	1402.59	1.05386E+000	1.05470E+000	7.61122E-004	...........
	1391	1403.6	1.05386E+000	1.05456E+000	7.69697E-004	...........
	1392	1404.61	1.05405E+000	1.05425E+000	7.66722E-004	...........
	1393	1405.62	1.05427E+000	1.05388E+000	7.60972E-004	...........
	1394	1406.63	1.05434E+000	1.05398E+000	7.63663E-004	...........
	1395	1407.63	1.05425E+000	1.05364E+000	7.60872E-004	...........
	1396	1408.64	1.05409E+000	1.05401E+000	7.68763E-004	...........
	1397	1409.65	1.05394E+000	1.05363E+000	7.69438E-004	...........
	1398	1410.66	1.05387E+000	1.05446E+000	7.67847E-004	...........
	1399	1411.67	1.05387E+000	1.05380E+000	7.69013E-004	...........
	1400	1412.68	1.05393E+000	1.05384E+000	7.65397E-004	...........
	1401	1413.68	1.05396E+000	1.05370E+000	7.66822E-004	...........
	1402	1414.69	1.05393E+000	1.05361E+000	7.70963E-004	...........
	1403	1415.7	1.05384E+000	1.05365E+000	7.69405E-004	...........
	1404	1416.71	1.05376E+000	1.05416E+000	7.74155E-004	...........
	1405	1417.72	1.05375E+000	1.05423E+000	7.74997E-004	...........
	1406	1418.72	1.05384E+000	1.05450E+000	7.83355E-004	...........
	1407	1419.73	1.05402E+000	1.05490E+000	7.79780E-004	...........
	1408	1420.74	1.05425E+000	1.05468E+000	7.76463E-004	...........
	1409	1421.75	1.05449E+000	1.05532E+000	7.68388E-004	...........
	1410	1422.76	1.05471E+000	1.05534E+000	7.66497E-004	...........
	1411	1423.77	1.05491E+000	1.05509E+000	7.74938E-004	...........
	1412	1424.78	1.05507E+000	1.05457E+000	7.71488E-004	...........
	1413	1425.78	1.05512E+000	1.05533E+000	7.68863E-004	...........
	1414	1426.79	1.05509E+000	1.05565E+000	7.70780E-004	...........
	1415	1427.8	1.05512E+000	1.05625E+000	7.80238E-004	...........
	1416	1428.81	1.05528E+000	1.05414E+000	7.74905E-004	...........
	1417	1429.82	1.05538E+000	1.05404E+000	7.70763E-004	...........
	1418	1430.82	1.05520E+000	1.05381E+000	7.69255E-004	...........
	1419	1431.83	1.05478E+000	1.05399E+000	7.69113E-004	...........
	1420	1432.84	1.05435E+000	1.05412E+000	7.71122E-004	...........
	1421	1433.85	1.05408E+000	1.05397E+000	7.82955E-004	...........
	1422	1434.86	1.05399E+000	1.05412E+000	7.79522E-004	...........
	1423	1435.87	1.05398E+000	1.05313E+000	7.79197E-004	...........
	1424	1436.88	1.05394E+000	1.05406E+000	7.80063E-004	...........
	1425	1437.88	1.05385E+000	1.05402E+000	7.75288E-004	...........
	1426	1438.89	1.05382E+000	1.05478E+000	7.79596E-004	...........
	1427	1439.9	1.05392E+000	1.05393E+000	7.68722E-004	...........
	1428	1440.91	1.05408E+000	1.05379E+000	7.71905E-004	...........
	1429	1441.92	1.05417E+000	1.05468E+000	7.75955E-004	...........
	1430	1442.93	1.05418E+000	1.05423E+000	7.70697E-004	...........
	1431	1443.93	1.05421E+000	1.05447E+000	7.77488E-004	...........
	1432	1444.94	1.05427E+000	1.05418E+000	7.67222E-004	...........
	1433	1445.95	1.05433E+000	1.05481E+000	7.70413E-004	...........
	1434	1446.96	1.05438E+000	1.05466E+000	7.72005E-004	...........
	1435	1447.97	1.05441E+000	1.05195E+000	7.71722E-004	...........
	1436	1448.97	1.05427E+000	1.05367E+000	7.67330E-004	...........
	1437	1449.98	1.05393E+000	1.05429E+000	7.72363E-004	...........
	1438	1450.99	1.05364E+000	1.05385E+000	7.67813E-004	...........
	1439	1452	1.05363E+000	1.05465E+000	7.70830E-004	...........
	1440	1453.01	1.05383E+000	1.05476E+000	7.68863E-004	...........
	1441	1454.02	1.05413E+000	1.05516E+000	7.69080E-004	...........
	1442	1455.03	1.05445E+000	1.05476E+000	7.76647E-004	...........
	1443	1456.03	1.05470E+000	1.05473E+000	7.81480E-004	...........
	1444	1457.04	1.05483E+000	1.05440E+000	7.74188E-004	...........
	1445	1458.05	1.05482E+000	1.05511E+000	7.71055E-004	...........
	1446	1459.06	1.05476E+000	1.05438E+000	7.77055E-004	...........
	1447	1460.07	1.05470E+000	1.05390E+000	7.75080E-004	...........
	1448	1461.07	1.05458E+000	1.05308E+000	7.80738E-004	...........
	1449	1462.08	1.05429E+000	1.05298E+000	7.73980E-004	...........
	1450	1463.09	1.05388E+000	1.05316E+000	7.81305E-004	...........
	1451	1464.1	1.05348E+000	1.05296E+000	7.78413E-004	...........
	1452	1465.11	1.05322E+000	1.05357E+000	7.69655E-004	...........
	1453	1466.12	1.05313E+000	1.05337E+000	7.78122E-004	...........
	1454	1467.13	1.05317E+000	1.05274E+000	7.72713E-004	...........
	1455	1468.13	1.05320E+000	1.05251E+000	7.76430E-004	...........
	1456	1469.14	1.05313E+000	1.05352E+000	7.73822E-004	...........
	1457	1470.15	1.05302E+000	1.05319E+000	7.87771E-004	...........
	1458	1471.16	1.05301E+000	1.05302E+000	7.81980E-004	...........
	1459	1472.17	1.05303E+000	1.05138E+000	7.78146E-004	...........
	1460	1473.18	1.05295E+000	1.05345E+000	7.80238E-004	...........
	1461	1474.18	1.05278E+000	1.05366E+000	7.79296E-004	...........
	1462	1475.19	1.05277E+000	1.05381E+000	7.70322E-004	...........
	1463	1476.2	1.05302E+000	1.05384E+000	7.66305E-004	...........
	1464	1477.21	1.05336E+000	1.05364E+000	7.71997E-004	...........
	1465	1478.22	1.05360E+000	1.05309E+000	7.80372E-004	...........
	1466	1479.22	1.05367E+000	1.05391E+000	7.69822E-004	...........
	1467	1480.23	1.05364E+000	1.05430E+000	7.66813E-004	...........
	1468	1481.24	1.05364E+000	1.05297E+000	7.77072E-004	...........
	1469	1482.25	1.05366E+000	1.05233E+000	7.71805E-004	...........
	1470	1483.26	1.05352E+000	1.05233E+000	7.68422E-004	...........
	1471	1484.27	1.05319E+000	1.05358E+000	7.73397E-004	...........
	1472	1485.28	1.05291E+000	1.05335E+000	7.69955E-004	...........
	1473	1486.28	1.05289E+000	1.05354E+000	7.67630E-004	...........
	1474	1487.29	1.05308E+000	1.05408E+000	7.72663E-004	...........
	1475	1488.3	1.05336E+000	1.05444E+000	7.72372E-004	...........
	1476	1489.31	1.05366E+000	1.05396E+000	7.72055E-004	...........
	1477	1490.32	1.05394E+000	1.05505E+000	7.73738E-004	...........
	1478	1491.32	1.05414E+000	1.05253E+000	7.85180E-004	...........
	1479	1492.33	1.05414E+000	1.05229E+000	7.70847E-004	...........
	1480	1493.34	1.05383E+000	1.05277E+000	7.70672E-004	...........
	1481	1494.35	1.05331E+000	1.05192E+000	7.75822E-004	...........
	1482	1495.36	1.05281E+000	1.05189E+000	7.70180E-004	...........
	1483	1496.37	1.05246E+000	1.05345E+000	7.70638E-004	...........
	1484	1497.38	1.05233E+000	1.05267E+000	7.76072E-004	...........
	1485	1498.38	1.05244E+000	1.05338E+000	7.69422E-004	...........
	1486	1499.39	1.05269E+000	1.05336E+000	7.65472E-004	...........
	1487	1500.4	1.05295E+000	1.05343E+000	7.61755E-004	...........
	1488	1501.41	1.05316E+000	1.05346E+000	7.62613E-004	...........
	1489	1502.42	1.05332E+000	1.05392E+000	7.63872E-004	...........
	1490	1503.43	1.05345E+000	1.05350E+000	7.63438E-004	...........
	1491	1504.43	1.05355E+000	1.05365E+000	7.62422E-004	...........
	1492	1505.44	1.05362E+000	1.05393E+000	7.65330E-004	...........
	1493	1506.45	1.05366E+000	1.05296E+000	7.76172E-004	...........
	1494	1507.46	1.05364E+000	1.05378E+000	7.70222E-004	...........
	1495	1508.47	1.05359E+000	1.05411E+000	7.71572E-004	...........
	1496	1509.47	1.05359E+000	1.05370E+000	7.71238E-004	...........
	1497	1510.48	1.05368E+000	1.05426E+000	7.69155E-004	...........
	1498	1511.49	1.05382E+000	1.05443E+000	7.74630E-004	...........
	1499	1512.5	1.05398E+000	1.05451E+000	7.77738E-004	...........
	1500	1513.51	1.05416E+000	1.05444E+000	7.69955E-004	...........
	1501	1514.52	1.05431E+000	1.05429E+000	7.73613E-004	...........
	1502	1515.53	1.05439E+000	1.05402E+000	7.68772E-004	...........
	1503	1516.53	1.05437E+000	1.05428E+000	7.73938E-004	...........
	1504	1517.54	1.05429E+000	1.05362E+000	7.69355E-004	...........
	1505	1518.55	1.05415E+000	1.05281E+000	7.76805E-004	...........
	1506	1519.56	1.05394E+000	1.05434E+000	7.69338E-004	...........
	1507	1520.57	1.05375E+000	1.05487E+000	7.71738E-004	...........
	1508	1521.57	1.05375E+000	1.05302E+000	7.77613E-004	...........
	1509	1522.58	1.05388E+000	1.05388E+000	7.67397E-004	...........
	1510	1523.59	1.05391E+000	1.05356E+000	7.69022E-004	...........
	1511	1524.6	1.05382E+000	1.05309E+000	7.73847E-004	...........
	1512	1525.61	1.05366E+000	1.05356E+000	7.67522E-004	...........
	1513	1526.62	1.05353E+000	1.05388E+000	7.64438E-004	...........
	1514	1527.63	1.05349E+000	1.05366E+000	7.67822E-004	...........
	1515	1528.63	1.05353E+000	1.05328E+000	7.71447E-004	...........
	1516	1529.64	1.05354E+000	1.05103E+000	7.68088E-004	...........
	1517	1530.65	1.05334E+000	1.05435E+000	7.73830E-004	...........
	1518	1531.66	1.05306E+000	1.05359E+000	7.71563E-004	...........
	1519	1532.67	1.05300E+000	1.05368E+000	7.69405E-004	...........
	1520	1533.68	1.05321E+000	1.05368E+000	7.78230E-004	...........
	1521	1534.68	1.05347E+000	1.05390E+000	7.79605E-004	...........
	1522	1535.69	1.05364E+000	1.05373E+000	7.75588E-004	...........
	1523	1536.7	1.05373E+000	1.05340E+000	7.72205E-004	...........
	1524	1537.71	1.05373E+000	1.05299E+000	7.74047E-004	...........
	1525	1538.72	1.05362E+000	1.05376E+000	7.65197E-004	...........
	1526	1539.72	1.05348E+000	1.05274E+000	7.78497E-004	...........
	1527	1540.73	1.05337E+000	1.05366E+000	7.72038E-004	...........
	1528	1541.74	1.05331E+000	1.05367E+000	7.74897E-004	...........
	1529	1542.75	1.05333E+000	1.05351E+000	7.72238E-004	...........
	1530	1543.76	1.05342E+000	1.05367E+000	7.70305E-004	...........
	1531	1544.77	1.05352E+000	1.05349E+000	7.77588E-004	...........
	1532	1545.78	1.05356E+000	1.05341E+000	7.73672E-004	...........
	1533	1546.78	1.05357E+000	1.05400E+000	7.71863E-004	...........
	1534	1547.79	1.05360E+000	1.05464E+000	7.76805E-004	...........
	1535	1548.8	1.05373E+000	1.05421E+000	7.63813E-004	...........
	1536	1549.81	1.05395E+000	1.05378E+000	7.69380E-004	...........
	1537	1550.82	1.05411E+000	1.05370E+000	7.68047E-004	...........
	1538	1551.82	1.05407E+000	1.05222E+000	7.68055E-004	...........
	1539	1552.83	1.05380E+000	1.05285E+000	7.80880E-004	...........
	1540	1553.84	1.05340E+000	1.05287E+000	7.86863E-004	...........
	1541	1554.85	1.05304E+000	1.05293E+000	7.78497E-004	...........
	1542	1555.86	1.05287E+000	1.05328E+000	7.71472E-004	...........
	1543	1556.87	1.05287E+000	1.05326E+000	7.69163E-004	...........
	1544	1557.88	1.05298E+000	1.05313E+000	7.71922E-004	...........
	1545	1558.88	1.05310E+000	1.05341E+000	7.71688E-004	...........
	1546	1559.89	1.05319E+000	1.05306E+000	7.78097E-004	...........
	1547	1560.9	1.05321E+000	1.05211E+000	7.76522E-004	...........
	1548	1561.91	1.05311E+000	1.05258E+000	7.80872E-004	...........
	1549	1562.92	1.05291E+000	1.05356E+000	7.69413E-004	...........
	1550	1563.92	1.05280E+000	1.05379E+000	7.65097E-004	...........
	1551	1564.93	1.05292E+000	1.05354E+000	7.70430E-004	...........
	1552	1565.94	1.05318E+000	1.05270E+000	7.68222E-004	...........
	1553	1566.95	1.05334E+000	1.05296E+000	7.72172E-004	...........
	1554	1567.96	1.05330E+000	1.05299E+000	7.68913E-004	...........
	1555	1568.97	1.05316E+000	1.05360E+000	7.76872E-004	...........
	1556	1569.97	1.05310E+000	1.05340E+000	7.70563E-004	...........
	1557	1570.98	1.05314E+000	1.05249E+000	7.75430E-004	...........
	1558	1571.99	1.05319E+000	1.05321E+000	7.73372E-004	...........
	1559	1573	1.05314E+000	1.05304E+000	7.76255E-004	...........
	1560	1574.01	1.05307E+000	1.05331E+000	7.75355E-004	...........
	1561	1575.02	1.05307E+000	1.05340E+000	7.73922E-004	...........
	1562	1576.03	1.05313E+000	1.05334E+000	7.73955E-004	...........
	1563	1577.03	1.05323E+000	1.05348E+000	7.69355E-004	...........
	1564	1578.04	1.05332E+000	1.05360E+000	7.74380E-004	...........
	1565	1579.05	1.05340E+000	1.05372E+000	7.75705E-004	...........
	1566	1580.06	1.05350E+000	1.05442E+000	7.84846E-004	...........
	1567	1581.07	1.05362E+000	1.05232E+000	7.77838E-004	...........
	1568	1582.07	1.05365E+000	1.05283E+000	7.82846E-004	...........
	1569	1583.08	1.05346E+000	1.05170E+000	7.82996E-004	...........
	1570	1584.09	1.05307E+000	1.05256E+000	7.80030E-004	...........
	1571	1585.1	1.05269E+000	1.05401E+000	7.79180E-004	...........
	1572	1586.11	1.05259E+000	1.05343E+000	7.75813E-004	...........
	1573	1587.12	1.05282E+000	1.05389E+000	7.74605E-004	...........
	1574	1588.13	1.05319E+000	1.05352E+000	7.71530E-004	...........
	1575	1589.13	1.05348E+000	1.05335E+000	7.69938E-004	...........
	1576	1590.14	1.05360E+000	1.05363E+000	7.75555E-004	...........
	1577	1591.15	1.05359E+000	1.05322E+000	7.79538E-004	...........
	1578	1592.16	1.05353E+000	1.05350E+000	7.70755E-004	...........
	1579	1593.17	1.05345E+000	1.05258E+000	7.79721E-004	...........
	1580	1594.17	1.05332E+000	1.05223E+000	7.69638E-004	...........
	1581	1595.18	1.05305E+000	1.05004E+000	7.65330E-004	...........
	1582	1596.19	1.05259E+000	1.05328E+000	7.73738E-004	...........
	1583	1597.2	1.05214E+000	1.05314E+000	7.74380E-004	...........
	1584	1598.21	1.05205E+000	1.05322E+000	7.74163E-004	...........
	1585	1599.22	1.05235E+000	1.05268E+000	7.72822E-004	...........
	1586	1600.22	1.05272E+000	1.05303E+000	7.77122E-004	...........
	1587	1601.23	1.05293E+000	1.05314E+000	7.77055E-004	...........
	1588	1602.24	1.05299E+000	1.05274E+000	7.72438E-004	...........
	1589	1603.25	1.05300E+000	1.05308E+000	7.78905E-004	...........
	1590	1604.26	1.05299E+000	1.05323E+000	7.80113E-004	...........
	1591	1605.27	1.05298E+000	1.05232E+000	7.67663E-004	...........
	1592	1606.28	1.05298E+000	1.05361E+000	7.63513E-004	...........
	1593	1607.28	1.05295E+000	1.05212E+000	7.70555E-004	...........
	1594	1608.29	1.05294E+000	1.05462E+000	7.73838E-004	...........
	1595	1609.3	1.05304E+000	1.05438E+000	7.65130E-004	...........
	1596	1610.31	1.05334E+000	1.05447E+000	7.62813E-004	...........
	1597	1611.32	1.05375E+000	1.05316E+000	7.76730E-004	...........
	1598	1612.32	1.05397E+000	1.05167E+000	7.72672E-004	...........
	1599	1613.33	1.05376E+000	1.05162E+000	7.78555E-004	...........
