EXPLAIN
TAG	CORPOT
TITLE	LABEL	Open Circuit Potential	Test &Identifier
DATE	LABEL	2019-10-16	Date
TIME	LABEL	23:16:22	Time
NOTES	NOTES	1	&Notes...
	
PSTAT	PSTAT	REF3000-13111	Potentiostat
TIMEOUT	QUANT	9.00000E+004	Total &Time (s)
SAMPLETIME	QUANT	1.00000E+000	Sa&mple Period (s)
STABILITY	QUANT	0.00000E+000	Sta&bility (mV/s)
PSTATMODEL	IQUANT	5	Pstat Model
PSTATSECTION	LABEL	REF3000-13111	Pstat Section
PSTATSERIALNO	LABEL	13111	Pstat Serial Number
CTRLMODE	IQUANT	1	Control Mode
IESTAB	IQUANT	2	I/E Stability
CASPEED	IQUANT	2	Control Amp Speed
CONVENTION	IQUANT	1	Current Convention
ICHRANGE	IQUANT	2	Ich Range
ICHRANGEMODE	TOGGLE	T	Ich Auto Range
ICHOFFSETENABLE	TOGGLE	F	Ich Offset Enable
ICHOFFSET	QUANT	0	Ich Offset (V)
ICHFILTER	IQUANT	3	Ich Filter
VCHRANGE	IQUANT	3	Vch Range
VCHRANGEMODE	TOGGLE	T	Vch Auto Range
VCHOFFSETENABLE	TOGGLE	F	Vch Offset Enable
VCHOFFSET	QUANT	0	Vch Offset (V)
VCHFILTER	IQUANT	3	Vch Filter
ACHRANGE	IQUANT	2	Ach Range
ACHOFFSETENABLE	TOGGLE	F	Ach Offset Enable
ACHOFFSET	QUANT	0	Ach Offset (V)
ACHFILTER	IQUANT	3	Ach Filter
IERANGELOWERLIMIT	IQUANT	2	I/E Range Lower Limit
IERANGEMODE	TOGGLE	T	I/E AutoRange
IERANGE	IQUANT	11	I/E Range
POSFEEDENABLE	TOGGLE	F	Positive Feedback IR Comp
POSFEEDRESISTANCE	QUANT	0	Positive Feedback Resistance (ohm)
ACHSELECT	IQUANT	0	Ach Select
CABLEID	IQUANT	14	Cable ID
DCCALDATE	LABEL	2019-10-1	DC Calibration Date
ACCALDATE	LABEL	2019-10-1	AC Calibration Date
THERMOSELECT	IQUANT	1	Thermo Select
FRAMEWORKVERSION	QUANT	6.33	Framework Version
INSTRUMENTVERSION	LABEL	3.50	Instrument Version
COMPLIANCEVOLTAGE	IQUANT	0	Compliance Voltage
CURVE	TABLE	1530
	Pt	T	Vf	Vm	Ach	Over
	#	s	V vs. Ref.	V	V	bits
	0	1.00833	1.04156E+000	1.04156E+000	6.42774E-004	...........
	1	2.01667	1.04157E+000	1.04174E+000	6.43482E-004	...........
	2	3.025	1.04159E+000	1.04200E+000	6.43332E-004	...........
	3	4.03333	1.04165E+000	1.04185E+000	6.44099E-004	...........
	4	5.04167	1.04175E+000	1.04213E+000	6.42607E-004	...........
	5	6.05	1.04185E+000	1.04198E+000	6.43615E-004	...........
	6	7.05833	1.04191E+000	1.04068E+000	6.43382E-004	...........
	7	8.06667	1.04182E+000	1.04011E+000	6.41732E-004	...........
	8	9.075	1.04153E+000	1.04169E+000	6.43340E-004	...........
	9	10.0833	1.04120E+000	1.04229E+000	6.43882E-004	...........
	10	11.0917	1.04114E+000	1.04180E+000	6.42315E-004	...........
	11	12.1	1.04138E+000	1.04199E+000	6.43299E-004	...........
	12	13.1083	1.04168E+000	1.04229E+000	6.42674E-004	...........
	13	14.1167	1.04191E+000	1.04200E+000	6.43724E-004	...........
	14	15.125	1.04202E+000	1.04153E+000	6.43899E-004	...........
	15	16.1333	1.04200E+000	1.04057E+000	6.43824E-004	...........
	16	17.1417	1.04180E+000	1.04101E+000	6.40865E-004	...........
	17	18.15	1.04149E+000	1.04168E+000	6.43340E-004	...........
	18	19.1583	1.04126E+000	1.04191E+000	6.43582E-004	...........
	19	20.1667	1.04127E+000	1.04185E+000	6.42182E-004	...........
	20	21.175	1.04146E+000	1.04210E+000	6.43482E-004	...........
	21	22.1833	1.04169E+000	1.04198E+000	6.43232E-004	...........
	22	23.1917	1.04187E+000	1.04205E+000	6.43832E-004	...........
	23	24.2	1.04198E+000	1.04226E+000	6.44132E-004	...........
	24	25.2083	1.04203E+000	1.04151E+000	6.41890E-004	...........
	25	26.2167	1.04201E+000	1.04094E+000	6.42357E-004	...........
	26	27.225	1.04187E+000	1.04180E+000	6.43807E-004	...........
	27	28.2333	1.04168E+000	1.04223E+000	6.43515E-004	...........
	28	29.2417	1.04161E+000	1.04190E+000	6.43332E-004	...........
	29	30.25	1.04171E+000	1.04239E+000	6.42449E-004	...........
	30	31.2583	1.04189E+000	1.04228E+000	6.43315E-004	...........
	31	32.2667	1.04207E+000	1.04257E+000	6.43265E-004	...........
	32	33.275	1.04223E+000	1.04289E+000	6.42357E-004	...........
	33	34.2833	1.04239E+000	1.04222E+000	6.44782E-004	...........
	34	35.2917	1.04247E+000	1.04079E+000	6.43899E-004	...........
	35	36.3	1.04235E+000	1.04163E+000	6.43957E-004	...........
	36	37.3083	1.04205E+000	1.04257E+000	6.41032E-004	...........
	37	38.3167	1.04182E+000	1.04222E+000	6.43782E-004	...........
	38	39.325	1.04184E+000	1.04232E+000	6.43890E-004	...........
	39	40.3333	1.04202E+000	1.04227E+000	6.43949E-004	...........
	40	41.3417	1.04218E+000	1.04225E+000	6.44107E-004	...........
	41	42.35	1.04227E+000	1.04233E+000	6.45565E-004	...........
	42	43.3583	1.04230E+000	1.04284E+000	6.43865E-004	...........
	43	44.3667	1.04236E+000	1.04270E+000	6.44390E-004	...........
	44	45.375	1.04244E+000	1.04131E+000	6.44032E-004	...........
	45	46.3833	1.04244E+000	1.04231E+000	6.44040E-004	...........
	46	47.3917	1.04231E+000	1.04203E+000	6.44407E-004	...........
	47	48.4	1.04216E+000	1.04226E+000	6.43474E-004	...........
	48	49.4083	1.04211E+000	1.04325E+000	6.44874E-004	...........
	49	50.4167	1.04224E+000	1.04373E+000	6.44765E-004	...........
	50	51.425	1.04257E+000	1.04385E+000	6.45007E-004	...........
	51	52.4333	1.04301E+000	1.04387E+000	6.44457E-004	...........
	52	53.4417	1.04341E+000	1.04299E+000	6.43299E-004	...........
	53	54.45	1.04358E+000	1.04227E+000	6.43315E-004	...........
	54	55.4583	1.04342E+000	1.04074E+000	6.41282E-004	...........
	55	56.4667	1.04294E+000	1.04206E+000	6.42149E-004	...........
	56	57.475	1.04236E+000	1.04302E+000	6.42240E-004	...........
	57	58.4833	1.04203E+000	1.04229E+000	6.43674E-004	...........
	58	59.4917	1.04206E+000	1.04215E+000	6.45465E-004	...........
	59	60.5	1.04222E+000	1.04225E+000	6.42882E-004	...........
	60	61.5083	1.04231E+000	1.04221E+000	6.41824E-004	...........
	61	62.5167	1.04230E+000	1.04225E+000	6.43482E-004	...........
	62	63.525	1.04226E+000	1.04204E+000	6.43799E-004	...........
	63	64.5333	1.04222E+000	1.04232E+000	6.42982E-004	...........
	64	65.5417	1.04217E+000	1.04099E+000	6.41690E-004	...........
	65	66.55	1.04203E+000	1.03973E+000	6.41249E-004	...........
	66	67.5583	1.04169E+000	1.04227E+000	6.42024E-004	...........
	67	68.5667	1.04133E+000	1.04181E+000	6.43690E-004	...........
	68	69.575	1.04123E+000	1.04251E+000	6.40974E-004	...........
	69	70.5833	1.04147E+000	1.04225E+000	6.44015E-004	...........
	70	71.5917	1.04183E+000	1.04211E+000	6.44199E-004	...........
	71	72.6	1.04209E+000	1.04217E+000	6.43582E-004	...........
	72	73.6083	1.04221E+000	1.04229E+000	6.42749E-004	...........
	73	74.6167	1.04225E+000	1.04308E+000	6.44390E-004	...........
	74	75.625	1.04230E+000	1.04155E+000	6.44957E-004	...........
	75	76.6333	1.04235E+000	1.04194E+000	6.44074E-004	...........
	76	77.6417	1.04230E+000	1.04246E+000	6.43107E-004	...........
	77	78.65	1.04219E+000	1.04222E+000	6.44915E-004	...........
	78	79.6583	1.04215E+000	1.04235E+000	6.42499E-004	...........
	79	80.6667	1.04219E+000	1.04203E+000	6.42940E-004	...........
	80	81.675	1.04223E+000	1.04232E+000	6.43357E-004	...........
	81	82.6833	1.04223E+000	1.04224E+000	6.44082E-004	...........
	82	83.6917	1.04223E+000	1.04233E+000	6.43957E-004	...........
	83	84.7	1.04224E+000	1.04233E+000	6.43032E-004	...........
	84	85.7083	1.04224E+000	1.04101E+000	6.41990E-004	...........
	85	86.7167	1.04213E+000	1.04041E+000	6.42249E-004	...........
	86	87.725	1.04184E+000	1.04228E+000	6.42699E-004	...........
	87	88.7333	1.04153E+000	1.04230E+000	6.41940E-004	...........
	88	89.7417	1.04149E+000	1.04230E+000	6.42749E-004	...........
	89	90.75	1.04172E+000	1.04223E+000	6.42515E-004	...........
	90	91.7583	1.04200E+000	1.04237E+000	6.41782E-004	...........
	91	92.7667	1.04220E+000	1.04254E+000	6.41674E-004	...........
	92	93.775	1.04232E+000	1.04293E+000	6.42849E-004	...........
	93	94.7833	1.04245E+000	1.04343E+000	6.43832E-004	...........
	94	95.792	1.04264E+000	1.04267E+000	6.45199E-004	...........
	95	96.8	1.04283E+000	1.04249E+000	6.41432E-004	...........
	96	97.808	1.04292E+000	1.04386E+000	6.44849E-004	...........
	97	98.817	1.04297E+000	1.04359E+000	6.44357E-004	...........
	98	99.825	1.04311E+000	1.04406E+000	6.41690E-004	...........
	99	100.833	1.04337E+000	1.04400E+000	6.42349E-004	...........
	100	101.842	1.04364E+000	1.04397E+000	6.42307E-004	...........
	101	102.85	1.04382E+000	1.04281E+000	6.42874E-004	...........
	102	103.858	1.04380E+000	1.04222E+000	6.44074E-004	...........
	103	104.867	1.04352E+000	1.04206E+000	6.43715E-004	...........
	104	105.875	1.04306E+000	1.04251E+000	6.39274E-004	...........
	105	106.883	1.04262E+000	1.04162E+000	6.42715E-004	...........
	106	107.892	1.04230E+000	1.04130E+000	6.41832E-004	...........
	107	108.9	1.04206E+000	1.04217E+000	6.43090E-004	...........
	108	109.908	1.04188E+000	1.04232E+000	6.41840E-004	...........
	109	110.917	1.04184E+000	1.04209E+000	6.42982E-004	...........
	110	111.925	1.04194E+000	1.04207E+000	6.42582E-004	...........
	111	112.933	1.04205E+000	1.04216E+000	6.43482E-004	...........
	112	113.942	1.04211E+000	1.04187E+000	6.43607E-004	...........
	113	114.95	1.04210E+000	1.04201E+000	6.43349E-004	...........
	114	115.958	1.04206E+000	1.04187E+000	6.42807E-004	...........
	115	116.967	1.04198E+000	1.04075E+000	6.42057E-004	...........
	116	117.975	1.04183E+000	1.04130E+000	6.41749E-004	...........
	117	118.983	1.04162E+000	1.04215E+000	6.42432E-004	...........
	118	119.992	1.04148E+000	1.04218E+000	6.43607E-004	...........
	119	121	1.04157E+000	1.04221E+000	6.43515E-004	...........
	120	122.008	1.04180E+000	1.04241E+000	6.42415E-004	...........
	121	123.017	1.04205E+000	1.04320E+000	6.43382E-004	...........
	122	124.025	1.04229E+000	1.04207E+000	6.44290E-004	...........
	123	125.033	1.04247E+000	1.04227E+000	6.44932E-004	...........
	124	126.042	1.04252E+000	1.04230E+000	6.42765E-004	...........
	125	127.05	1.04242E+000	1.04090E+000	6.39449E-004	...........
	126	128.058	1.04218E+000	1.04010E+000	6.39899E-004	...........
	127	129.067	1.04179E+000	1.04293E+000	6.41382E-004	...........
	128	130.075	1.04149E+000	1.04256E+000	6.40499E-004	...........
	129	131.083	1.04154E+000	1.04276E+000	6.41199E-004	...........
	130	132.092	1.04194E+000	1.04351E+000	6.43715E-004	...........
	131	133.1	1.04242E+000	1.04297E+000	6.42857E-004	...........
	132	134.108	1.04281E+000	1.04329E+000	6.43632E-004	...........
	133	135.117	1.04306E+000	1.04334E+000	6.44957E-004	...........
	134	136.125	1.04318E+000	1.04320E+000	6.44949E-004	...........
	135	137.133	1.04322E+000	1.04236E+000	6.41907E-004	...........
	136	138.142	1.04316E+000	1.04288E+000	6.42699E-004	...........
	137	139.15	1.04304E+000	1.04389E+000	6.44090E-004	...........
	138	140.158	1.04300E+000	1.04389E+000	6.43182E-004	...........
	139	141.167	1.04318E+000	1.04460E+000	6.43174E-004	...........
	140	142.175	1.04354E+000	1.04488E+000	6.41657E-004	...........
	141	143.183	1.04395E+000	1.04370E+000	6.43957E-004	...........
	142	144.192	1.04421E+000	1.04245E+000	6.41507E-004	...........
	143	145.2	1.04414E+000	1.04385E+000	6.43757E-004	...........
	144	146.208	1.04383E+000	1.04344E+000	6.43957E-004	...........
	145	147.217	1.04353E+000	1.04232E+000	6.43265E-004	...........
	146	148.225	1.04330E+000	1.04229E+000	6.42590E-004	...........
	147	149.233	1.04305E+000	1.04284E+000	6.43207E-004	...........
	148	150.242	1.04280E+000	1.04307E+000	6.44499E-004	...........
	149	151.25	1.04269E+000	1.04273E+000	6.42665E-004	...........
	150	152.258	1.04272E+000	1.04274E+000	6.42974E-004	...........
	151	153.267	1.04279E+000	1.04364E+000	6.43924E-004	...........
	152	154.275	1.04289E+000	1.04328E+000	6.44424E-004	...........
	153	155.283	1.04303E+000	1.04288E+000	6.42315E-004	...........
	154	156.292	1.04314E+000	1.04271E+000	6.41799E-004	...........
	155	157.3	1.04312E+000	1.04248E+000	6.41982E-004	...........
	156	158.308	1.04297E+000	1.04260E+000	6.42690E-004	...........
	157	159.317	1.04281E+000	1.04335E+000	6.43699E-004	...........
	158	160.325	1.04275E+000	1.04343E+000	6.45015E-004	...........
	159	161.333	1.04287E+000	1.04383E+000	6.43449E-004	...........
	160	162.342	1.04312E+000	1.04356E+000	6.44449E-004	...........
	161	163.35	1.04338E+000	1.04387E+000	6.44349E-004	...........
	162	164.358	1.04357E+000	1.04371E+000	6.45332E-004	...........
	163	165.367	1.04369E+000	1.04374E+000	6.43232E-004	...........
	164	166.375	1.04374E+000	1.04353E+000	6.43715E-004	...........
	165	167.383	1.04371E+000	1.04261E+000	6.41674E-004	...........
	166	168.392	1.04353E+000	1.04081E+000	6.42965E-004	...........
	167	169.4	1.04308E+000	1.04038E+000	6.42374E-004	...........
	168	170.408	1.04235E+000	1.04082E+000	6.43332E-004	...........
	169	171.417	1.04155E+000	1.04018E+000	6.42724E-004	...........
	170	172.425	1.04095E+000	1.04064E+000	6.42832E-004	...........
	171	173.433	1.04061E+000	1.04014E+000	6.41640E-004	...........
	172	174.442	1.04044E+000	1.03993E+000	6.43807E-004	...........
	173	175.45	1.04033E+000	1.04022E+000	6.43982E-004	...........
	174	176.458	1.04023E+000	1.04033E+000	6.43782E-004	...........
	175	177.467	1.04021E+000	1.04211E+000	6.44082E-004	...........
	176	178.475	1.04041E+000	1.04208E+000	6.44632E-004	...........
	177	179.483	1.04089E+000	1.04405E+000	6.43624E-004	...........
	178	180.492	1.04161E+000	1.04373E+000	6.45124E-004	...........
	179	181.5	1.04243E+000	1.04391E+000	6.43224E-004	...........
	180	182.508	1.04314E+000	1.04386E+000	6.44240E-004	...........
	181	183.517	1.04361E+000	1.04388E+000	6.42807E-004	...........
	182	184.525	1.04382E+000	1.04380E+000	6.44390E-004	...........
	183	185.533	1.04388E+000	1.04388E+000	6.44757E-004	...........
	184	186.542	1.04387E+000	1.04327E+000	6.45990E-004	...........
	185	187.55	1.04380E+000	1.04340E+000	6.44782E-004	...........
	186	188.558	1.04370E+000	1.04455E+000	6.44190E-004	...........
	187	189.567	1.04368E+000	1.04480E+000	6.45424E-004	...........
	188	190.575	1.04384E+000	1.04343E+000	6.43782E-004	...........
	189	191.583	1.04402E+000	1.04259E+000	6.44365E-004	...........
	190	192.592	1.04395E+000	1.04285E+000	6.43532E-004	...........
	191	193.6	1.04361E+000	1.04278E+000	6.41932E-004	...........
	192	194.608	1.04321E+000	1.04313E+000	6.43640E-004	...........
	193	195.617	1.04298E+000	1.04355E+000	6.43424E-004	...........
	194	196.625	1.04296E+000	1.04327E+000	6.42657E-004	...........
	195	197.633	1.04309E+000	1.04296E+000	6.42474E-004	...........
	196	198.642	1.04321E+000	1.04393E+000	6.41640E-004	...........
	197	199.65	1.04330E+000	1.04390E+000	6.42457E-004	...........
	198	200.658	1.04344E+000	1.04390E+000	6.42182E-004	...........
	199	201.667	1.04362E+000	1.04384E+000	6.43399E-004	...........
	200	202.675	1.04377E+000	1.04403E+000	6.40015E-004	...........
	201	203.683	1.04387E+000	1.04413E+000	6.42140E-004	...........
	202	204.692	1.04394E+000	1.04403E+000	6.42024E-004	...........
	203	205.7	1.04400E+000	1.04404E+000	6.42199E-004	...........
	204	206.708	1.04405E+000	1.04465E+000	6.43507E-004	...........
	205	207.717	1.04410E+000	1.04370E+000	6.45240E-004	...........
	206	208.725	1.04415E+000	1.04403E+000	6.43057E-004	...........
	207	209.733	1.04414E+000	1.04399E+000	6.42915E-004	...........
	208	210.742	1.04407E+000	1.04390E+000	6.44174E-004	...........
	209	211.75	1.04402E+000	1.04456E+000	6.43565E-004	...........
	210	212.758	1.04403E+000	1.04419E+000	6.42049E-004	...........
	211	213.767	1.04412E+000	1.04476E+000	6.45115E-004	...........
	212	214.775	1.04425E+000	1.04396E+000	6.43115E-004	...........
	213	215.783	1.04433E+000	1.04417E+000	6.41799E-004	...........
	214	216.792	1.04432E+000	1.04384E+000	6.43707E-004	...........
	215	217.8	1.04421E+000	1.04322E+000	6.44240E-004	...........
	216	218.808	1.04397E+000	1.04111E+000	6.43349E-004	...........
	217	219.817	1.04356E+000	1.04376E+000	6.44015E-004	...........
	218	220.825	1.04312E+000	1.04471E+000	6.43074E-004	...........
	219	221.833	1.04304E+000	1.04474E+000	6.43074E-004	...........
	220	222.842	1.04342E+000	1.04443E+000	6.40399E-004	...........
	221	223.85	1.04396E+000	1.04423E+000	6.41765E-004	...........
	222	224.858	1.04434E+000	1.04492E+000	6.44590E-004	...........
	223	225.867	1.04451E+000	1.04522E+000	6.43815E-004	...........
	224	226.875	1.04464E+000	1.04522E+000	6.44049E-004	...........
	225	227.883	1.04482E+000	1.04518E+000	6.43607E-004	...........
	226	228.892	1.04500E+000	1.04466E+000	6.42290E-004	...........
	227	229.9	1.04505E+000	1.04353E+000	6.44099E-004	...........
	228	230.908	1.04488E+000	1.04360E+000	6.44699E-004	...........
	229	231.917	1.04450E+000	1.04365E+000	6.45799E-004	...........
	230	232.925	1.04409E+000	1.04388E+000	6.45265E-004	...........
	231	233.933	1.04381E+000	1.04347E+000	6.45124E-004	...........
	232	234.942	1.04370E+000	1.04387E+000	6.45049E-004	...........
	233	235.95	1.04368E+000	1.04389E+000	6.43665E-004	...........
	234	236.958	1.04371E+000	1.04411E+000	6.41790E-004	...........
	235	237.967	1.04380E+000	1.04427E+000	6.40107E-004	...........
	236	238.975	1.04390E+000	1.04284E+000	6.41982E-004	...........
	237	239.983	1.04390E+000	1.04336E+000	6.44049E-004	...........
	238	240.992	1.04376E+000	1.04384E+000	6.43432E-004	...........
	239	242	1.04359E+000	1.04382E+000	6.43140E-004	...........
	240	243.008	1.04354E+000	1.04343E+000	6.43174E-004	...........
	241	244.017	1.04359E+000	1.04415E+000	6.41099E-004	...........
	242	245.025	1.04368E+000	1.04393E+000	6.41749E-004	...........
	243	246.033	1.04377E+000	1.04400E+000	6.40449E-004	...........
	244	247.042	1.04386E+000	1.04376E+000	6.44107E-004	...........
	245	248.05	1.04391E+000	1.04382E+000	6.42490E-004	...........
	246	249.058	1.04388E+000	1.04263E+000	6.41507E-004	...........
	247	250.067	1.04374E+000	1.04315E+000	6.42615E-004	...........
	248	251.075	1.04351E+000	1.04407E+000	6.42199E-004	...........
	249	252.083	1.04338E+000	1.04444E+000	6.41782E-004	...........
	250	253.092	1.04349E+000	1.04422E+000	6.40824E-004	...........
	251	254.1	1.04378E+000	1.04428E+000	6.40482E-004	...........
	252	255.108	1.04405E+000	1.04390E+000	6.41590E-004	...........
	253	256.117	1.04417E+000	1.04390E+000	6.42924E-004	...........
	254	257.125	1.04416E+000	1.04413E+000	6.40115E-004	...........
	255	258.133	1.04408E+000	1.04368E+000	6.41932E-004	...........
	256	259.142	1.04399E+000	1.04375E+000	6.42982E-004	...........
	257	260.15	1.04390E+000	1.04323E+000	6.43274E-004	...........
	258	261.158	1.04378E+000	1.04325E+000	6.43049E-004	...........
	259	262.167	1.04361E+000	1.04363E+000	6.44249E-004	...........
	260	263.175	1.04350E+000	1.04442E+000	6.40099E-004	...........
	261	264.183	1.04354E+000	1.04402E+000	6.41415E-004	...........
	262	265.192	1.04373E+000	1.04480E+000	6.42965E-004	...........
	263	266.2	1.04401E+000	1.04467E+000	6.41782E-004	...........
	264	267.208	1.04428E+000	1.04465E+000	6.42965E-004	...........
	265	268.217	1.04449E+000	1.04439E+000	6.41049E-004	...........
	266	269.225	1.04459E+000	1.04494E+000	6.44399E-004	...........
	267	270.233	1.04461E+000	1.04343E+000	6.44357E-004	...........
	268	271.242	1.04452E+000	1.04382E+000	6.43374E-004	...........
	269	272.25	1.04434E+000	1.04532E+000	6.44799E-004	...........
	270	273.258	1.04424E+000	1.04523E+000	6.42924E-004	...........
	271	274.267	1.04439E+000	1.04541E+000	6.44757E-004	...........
	272	275.275	1.04473E+000	1.04541E+000	6.44190E-004	...........
	273	276.283	1.04507E+000	1.04588E+000	6.40632E-004	...........
	274	277.292	1.04535E+000	1.04612E+000	6.42765E-004	...........
	275	278.3	1.04557E+000	1.04598E+000	6.40515E-004	...........
	276	279.308	1.04581E+000	1.04790E+000	6.41840E-004	...........
	277	280.317	1.04608E+000	1.04434E+000	6.40149E-004	...........
	278	281.325	1.04619E+000	1.04309E+000	6.42949E-004	...........
	279	282.333	1.04583E+000	1.04328E+000	6.44324E-004	...........
	280	283.342	1.04503E+000	1.04424E+000	6.41265E-004	...........
	281	284.35	1.04426E+000	1.04496E+000	6.42674E-004	...........
	282	285.358	1.04396E+000	1.04507E+000	6.43690E-004	...........
	283	286.367	1.04414E+000	1.04457E+000	6.41857E-004	...........
	284	287.375	1.04446E+000	1.04447E+000	6.40649E-004	...........
	285	288.383	1.04466E+000	1.04436E+000	6.39299E-004	...........
	286	289.392	1.04465E+000	1.04399E+000	6.40482E-004	...........
	287	290.4	1.04453E+000	1.04485E+000	6.41799E-004	...........
	288	291.408	1.04443E+000	1.04477E+000	6.43165E-004	...........
	289	292.417	1.04442E+000	1.04392E+000	6.42674E-004	...........
	290	293.425	1.04444E+000	1.04336E+000	6.43732E-004	...........
	291	294.433	1.04433E+000	1.04389E+000	6.43224E-004	...........
	292	295.442	1.04410E+000	1.04420E+000	6.39532E-004	...........
	293	296.45	1.04394E+000	1.04475E+000	6.42799E-004	...........
	294	297.458	1.04399E+000	1.04512E+000	6.43857E-004	...........
	295	298.467	1.04425E+000	1.04523E+000	6.44790E-004	...........
	296	299.475	1.04458E+000	1.04421E+000	6.42540E-004	...........
	297	300.483	1.04480E+000	1.04481E+000	6.43707E-004	...........
	298	301.492	1.04483E+000	1.04475E+000	6.44349E-004	...........
	299	302.5	1.04477E+000	1.04434E+000	6.45857E-004	...........
	300	303.508	1.04467E+000	1.04392E+000	6.44240E-004	...........
	301	304.517	1.04455E+000	1.04455E+000	6.41282E-004	...........
	302	305.525	1.04442E+000	1.04479E+000	6.44965E-004	...........
	303	306.533	1.04439E+000	1.04487E+000	6.43824E-004	...........
	304	307.542	1.04448E+000	1.04482E+000	6.43449E-004	...........
	305	308.55	1.04464E+000	1.04482E+000	6.43807E-004	...........
	306	309.558	1.04475E+000	1.04456E+000	6.43332E-004	...........
	307	310.567	1.04478E+000	1.04457E+000	6.42557E-004	...........
	308	311.575	1.04475E+000	1.04483E+000	6.44349E-004	...........
	309	312.583	1.04470E+000	1.04472E+000	6.43615E-004	...........
	310	313.592	1.04466E+000	1.04337E+000	6.43740E-004	...........
	311	314.6	1.04456E+000	1.04410E+000	6.42290E-004	...........
	312	315.608	1.04436E+000	1.04499E+000	6.43749E-004	...........
	313	316.617	1.04425E+000	1.04529E+000	6.43757E-004	...........
	314	317.625	1.04437E+000	1.04501E+000	6.44890E-004	...........
	315	318.633	1.04466E+000	1.04543E+000	6.44757E-004	...........
	316	319.642	1.04495E+000	1.04556E+000	6.44199E-004	...........
	317	320.65	1.04518E+000	1.04571E+000	6.42024E-004	...........
	318	321.658	1.04538E+000	1.04614E+000	6.43999E-004	...........
	319	322.667	1.04556E+000	1.04560E+000	6.43649E-004	...........
	320	323.675	1.04569E+000	1.04469E+000	6.44149E-004	...........
	321	324.683	1.04564E+000	1.04344E+000	6.43657E-004	...........
	322	325.692	1.04527E+000	1.04277E+000	6.42265E-004	...........
	323	326.7	1.04463E+000	1.04369E+000	6.44124E-004	...........
	324	327.708	1.04399E+000	1.04454E+000	6.42907E-004	...........
	325	328.717	1.04366E+000	1.04383E+000	6.44057E-004	...........
	326	329.725	1.04369E+000	1.04386E+000	6.44449E-004	...........
	327	330.733	1.04385E+000	1.04478E+000	6.44574E-004	...........
	328	331.742	1.04401E+000	1.04427E+000	6.41399E-004	...........
	329	332.75	1.04416E+000	1.04401E+000	6.41907E-004	...........
	330	333.758	1.04425E+000	1.04383E+000	6.43565E-004	...........
	331	334.767	1.04422E+000	1.04407E+000	6.43265E-004	...........
	332	335.775	1.04410E+000	1.04281E+000	6.43024E-004	...........
	333	336.783	1.04388E+000	1.04186E+000	6.42107E-004	...........
	334	337.792	1.04353E+000	1.04422E+000	6.40374E-004	...........
	335	338.8	1.04323E+000	1.04468E+000	6.43115E-004	...........
	336	339.808	1.04327E+000	1.04467E+000	6.43832E-004	...........
	337	340.817	1.04367E+000	1.04502E+000	6.43640E-004	...........
	338	341.825	1.04420E+000	1.04517E+000	6.42440E-004	...........
	339	342.833	1.04462E+000	1.04479E+000	6.42407E-004	...........
	340	343.842	1.04488E+000	1.04511E+000	6.44782E-004	...........
	341	344.85	1.04497E+000	1.04422E+000	6.41140E-004	...........
	342	345.858	1.04493E+000	1.04492E+000	6.44707E-004	...........
	343	346.867	1.04481E+000	1.04355E+000	6.44615E-004	...........
	344	347.875	1.04461E+000	1.04370E+000	6.43815E-004	...........
	345	348.883	1.04437E+000	1.04533E+000	6.43765E-004	...........
	346	349.892	1.04424E+000	1.04551E+000	6.43890E-004	...........
	347	350.9	1.04440E+000	1.04539E+000	6.44232E-004	...........
	348	351.908	1.04479E+000	1.04642E+000	6.44007E-004	...........
	349	352.917	1.04525E+000	1.04632E+000	6.43415E-004	...........
	350	353.925	1.04567E+000	1.04643E+000	6.45240E-004	...........
	351	354.933	1.04602E+000	1.04658E+000	6.44290E-004	...........
	352	355.942	1.04627E+000	1.04630E+000	6.44890E-004	...........
	353	356.95	1.04637E+000	1.04511E+000	6.45240E-004	...........
	354	357.958	1.04627E+000	1.04458E+000	6.43207E-004	...........
	355	358.967	1.04591E+000	1.04393E+000	6.43465E-004	...........
	356	359.975	1.04532E+000	1.04206E+000	6.44449E-004	...........
	357	360.983	1.04455E+000	1.04210E+000	6.43265E-004	...........
	358	361.992	1.04368E+000	1.04204E+000	6.44482E-004	...........
	359	363	1.04290E+000	1.04216E+000	6.43149E-004	...........
	360	364.008	1.04239E+000	1.04273E+000	6.42515E-004	...........
	361	365.017	1.04220E+000	1.04196E+000	6.43115E-004	...........
	362	366.025	1.04220E+000	1.04209E+000	6.43657E-004	...........
	363	367.033	1.04222E+000	1.04222E+000	6.43624E-004	...........
	364	368.042	1.04221E+000	1.04254E+000	6.42357E-004	...........
	365	369.05	1.04222E+000	1.04247E+000	6.43090E-004	...........
	366	370.058	1.04227E+000	1.04199E+000	6.43549E-004	...........
	367	371.067	1.04231E+000	1.04149E+000	6.42257E-004	...........
	368	372.075	1.04221E+000	1.04120E+000	6.41932E-004	...........
	369	373.083	1.04198E+000	1.04150E+000	6.42465E-004	...........
	370	374.092	1.04171E+000	1.04171E+000	6.44315E-004	...........
	371	375.1	1.04155E+000	1.04216E+000	6.43140E-004	...........
	372	376.108	1.04157E+000	1.04196E+000	6.44590E-004	...........
	373	377.117	1.04172E+000	1.04228E+000	6.43457E-004	...........
	374	378.125	1.04189E+000	1.04180E+000	6.43999E-004	...........
	375	379.133	1.04203E+000	1.04345E+000	6.43565E-004	...........
	376	380.142	1.04216E+000	1.04122E+000	6.42207E-004	...........
	377	381.15	1.04226E+000	1.04205E+000	6.45232E-004	...........
	378	382.158	1.04223E+000	1.04202E+000	6.43915E-004	...........
	379	383.167	1.04211E+000	1.04198E+000	6.42774E-004	...........
	380	384.175	1.04202E+000	1.04236E+000	6.43190E-004	...........
	381	385.183	1.04200E+000	1.04160E+000	6.42632E-004	...........
	382	386.192	1.04202E+000	1.04201E+000	6.43490E-004	...........
	383	387.2	1.04200E+000	1.04206E+000	6.42565E-004	...........
	384	388.208	1.04198E+000	1.04213E+000	6.43574E-004	...........
	385	389.217	1.04199E+000	1.04243E+000	6.41649E-004	...........
	386	390.225	1.04206E+000	1.04209E+000	6.43315E-004	...........
	387	391.233	1.04214E+000	1.04195E+000	6.43582E-004	...........
	388	392.242	1.04218E+000	1.04259E+000	6.41257E-004	...........
	389	393.25	1.04219E+000	1.04192E+000	6.42140E-004	...........
	390	394.258	1.04219E+000	1.04229E+000	6.40774E-004	...........
	391	395.267	1.04221E+000	1.04268E+000	6.39874E-004	...........
	392	396.275	1.04226E+000	1.04308E+000	6.40849E-004	...........
	393	397.283	1.04245E+000	1.04530E+000	6.41940E-004	...........
	394	398.292	1.04284E+000	1.04255E+000	6.40615E-004	...........
	395	399.3	1.04328E+000	1.04261E+000	6.42082E-004	...........
	396	400.308	1.04342E+000	1.04145E+000	6.41365E-004	...........
	397	401.317	1.04313E+000	1.04192E+000	6.44224E-004	...........
	398	402.325	1.04262E+000	1.04213E+000	6.41849E-004	...........
	399	403.333	1.04220E+000	1.04255E+000	6.41149E-004	...........
	400	404.342	1.04206E+000	1.04242E+000	6.41349E-004	...........
	401	405.35	1.04212E+000	1.04172E+000	6.43332E-004	...........
	402	406.358	1.04220E+000	1.04205E+000	6.43132E-004	...........
	403	407.367	1.04218E+000	1.04225E+000	6.43307E-004	...........
	404	408.375	1.04213E+000	1.04241E+000	6.43032E-004	...........
	405	409.383	1.04214E+000	1.04263E+000	6.42340E-004	...........
	406	410.392	1.04223E+000	1.04233E+000	6.43332E-004	...........
	407	411.4	1.04235E+000	1.04256E+000	6.42307E-004	...........
	408	412.408	1.04245E+000	1.04317E+000	6.43099E-004	...........
	409	413.417	1.04253E+000	1.04172E+000	6.43615E-004	...........
	410	414.425	1.04254E+000	1.04138E+000	6.42957E-004	...........
	411	415.433	1.04240E+000	1.04212E+000	6.43924E-004	...........
	412	416.442	1.04215E+000	1.04212E+000	6.43240E-004	...........
	413	417.45	1.04197E+000	1.04203E+000	6.43957E-004	...........
	414	418.458	1.04194E+000	1.04221E+000	6.42865E-004	...........
	415	419.467	1.04202E+000	1.04315E+000	6.42782E-004	...........
	416	420.475	1.04219E+000	1.04305E+000	6.43390E-004	...........
	417	421.483	1.04244E+000	1.04258E+000	6.41890E-004	...........
	418	422.492	1.04267E+000	1.04237E+000	6.41165E-004	...........
	419	423.5	1.04275E+000	1.04228E+000	6.42732E-004	...........
	420	424.508	1.04266E+000	1.04230E+000	6.43124E-004	...........
	421	425.517	1.04250E+000	1.04207E+000	6.43207E-004	...........
	422	426.525	1.04236E+000	1.04218E+000	6.42224E-004	...........
	423	427.533	1.04225E+000	1.04225E+000	6.41649E-004	...........
	424	428.542	1.04219E+000	1.04193E+000	6.41024E-004	...........
	425	429.55	1.04215E+000	1.04184E+000	6.43240E-004	...........
	426	430.558	1.04210E+000	1.04223E+000	6.42990E-004	...........
	427	431.567	1.04206E+000	1.04290E+000	6.41799E-004	...........
	428	432.575	1.04213E+000	1.04267E+000	6.41665E-004	...........
	429	433.583	1.04231E+000	1.04255E+000	6.40799E-004	...........
	430	434.592	1.04250E+000	1.04276E+000	6.42165E-004	...........
	431	435.6	1.04262E+000	1.04297E+000	6.42524E-004	...........
	432	436.608	1.04269E+000	1.04205E+000	6.43474E-004	...........
	433	437.617	1.04270E+000	1.04332E+000	6.44424E-004	...........
	434	438.625	1.04271E+000	1.04335E+000	6.42932E-004	...........
	435	439.633	1.04280E+000	1.04358E+000	6.43699E-004	...........
	436	440.642	1.04301E+000	1.04358E+000	6.41057E-004	...........
	437	441.65	1.04325E+000	1.04386E+000	6.42582E-004	...........
	438	442.658	1.04347E+000	1.04394E+000	6.43499E-004	...........
	439	443.667	1.04364E+000	1.04355E+000	6.44649E-004	...........
	440	444.675	1.04374E+000	1.04380E+000	6.44099E-004	...........
	441	445.683	1.04378E+000	1.04427E+000	6.43690E-004	...........
	442	446.692	1.04380E+000	1.04311E+000	6.43674E-004	...........
	443	447.7	1.04379E+000	1.04317E+000	6.44665E-004	...........
	444	448.708	1.04369E+000	1.04350E+000	6.43324E-004	...........
	445	449.717	1.04349E+000	1.04158E+000	6.44382E-004	...........
	446	450.725	1.04323E+000	1.04306E+000	6.43949E-004	...........
	447	451.733	1.04293E+000	1.04247E+000	6.42065E-004	...........
	448	452.742	1.04270E+000	1.04266E+000	6.43274E-004	...........
	449	453.75	1.04260E+000	1.04279E+000	6.43107E-004	...........
	450	454.758	1.04260E+000	1.04239E+000	6.44340E-004	...........
	451	455.767	1.04261E+000	1.04221E+000	6.44432E-004	...........
	452	456.775	1.04257E+000	1.04227E+000	6.44974E-004	...........
	453	457.783	1.04247E+000	1.04240E+000	6.44849E-004	...........
	454	458.792	1.04237E+000	1.04216E+000	6.45407E-004	...........
	455	459.8	1.04231E+000	1.04231E+000	6.43940E-004	...........
	456	460.808	1.04229E+000	1.04242E+000	6.44224E-004	...........
	457	461.817	1.04229E+000	1.04233E+000	6.42765E-004	...........
	458	462.825	1.04231E+000	1.04254E+000	6.43824E-004	...........
	459	463.833	1.04235E+000	1.04223E+000	6.45132E-004	...........
	460	464.842	1.04238E+000	1.04231E+000	6.43499E-004	...........
	461	465.85	1.04239E+000	1.04295E+000	6.45274E-004	...........
	462	466.858	1.04244E+000	1.04352E+000	6.44824E-004	...........
	463	467.867	1.04260E+000	1.04311E+000	6.44615E-004	...........
	464	468.875	1.04286E+000	1.04342E+000	6.44374E-004	...........
	465	469.883	1.04308E+000	1.04278E+000	6.43799E-004	...........
	466	470.892	1.04318E+000	1.04274E+000	6.42190E-004	...........
	467	471.9	1.04314E+000	1.04347E+000	6.44190E-004	...........
	468	472.908	1.04307E+000	1.04338E+000	6.44882E-004	...........
	469	473.917	1.04309E+000	1.04312E+000	6.43607E-004	...........
	470	474.925	1.04315E+000	1.04256E+000	6.43415E-004	...........
	471	475.933	1.04314E+000	1.04267E+000	6.43299E-004	...........
	472	476.942	1.04303E+000	1.04301E+000	6.43940E-004	...........
	473	477.95	1.04288E+000	1.04228E+000	6.43299E-004	...........
	474	478.958	1.04276E+000	1.04230E+000	6.44165E-004	...........
	475	479.967	1.04265E+000	1.04295E+000	6.43257E-004	...........
	476	480.975	1.04259E+000	1.04316E+000	6.44457E-004	...........
	477	481.983	1.04264E+000	1.04341E+000	6.44874E-004	...........
	478	482.992	1.04282E+000	1.04310E+000	6.43840E-004	...........
	479	484	1.04303E+000	1.04343E+000	6.45257E-004	...........
	480	485.008	1.04316E+000	1.04241E+000	6.45715E-004	...........
	481	486.017	1.04317E+000	1.04283E+000	6.44490E-004	...........
	482	487.025	1.04305E+000	1.04281E+000	6.43940E-004	...........
	483	488.033	1.04290E+000	1.04233E+000	6.44182E-004	...........
	484	489.042	1.04277E+000	1.04297E+000	6.43890E-004	...........
	485	490.05	1.04268E+000	1.04178E+000	6.42757E-004	...........
	486	491.058	1.04258E+000	1.04241E+000	6.42890E-004	...........
	487	492.067	1.04248E+000	1.04309E+000	6.42574E-004	...........
	488	493.075	1.04245E+000	1.04337E+000	6.43615E-004	...........
	489	494.083	1.04259E+000	1.04320E+000	6.43749E-004	...........
	490	495.092	1.04285E+000	1.04323E+000	6.44232E-004	...........
	491	496.1	1.04305E+000	1.04204E+000	6.44857E-004	...........
	492	497.108	1.04308E+000	1.04317E+000	6.44915E-004	...........
	493	498.117	1.04297E+000	1.04281E+000	6.44090E-004	...........
	494	499.125	1.04286E+000	1.04348E+000	6.44665E-004	...........
	495	500.133	1.04290E+000	1.04403E+000	6.41924E-004	...........
	496	501.142	1.04308E+000	1.04277E+000	6.44057E-004	...........
	497	502.15	1.04326E+000	1.04225E+000	6.44915E-004	...........
	498	503.158	1.04324E+000	1.04262E+000	6.42907E-004	...........
	499	504.167	1.04300E+000	1.04212E+000	6.45923E-004	...........
	500	505.175	1.04270E+000	1.04236E+000	6.45482E-004	...........
	501	506.183	1.04249E+000	1.04294E+000	6.45515E-004	...........
	502	507.192	1.04241E+000	1.04223E+000	6.44449E-004	...........
	503	508.2	1.04243E+000	1.04232E+000	6.44857E-004	...........
	504	509.208	1.04247E+000	1.04294E+000	6.45324E-004	...........
	505	510.217	1.04250E+000	1.04286E+000	6.44974E-004	...........
	506	511.225	1.04256E+000	1.04218E+000	6.44882E-004	...........
	507	512.233	1.04256E+000	1.03944E+000	6.41865E-004	...........
	508	513.242	1.04229E+000	1.04231E+000	6.43907E-004	...........
	509	514.25	1.04186E+000	1.04331E+000	6.43090E-004	...........
	510	515.258	1.04167E+000	1.04225E+000	6.44449E-004	...........
	511	516.267	1.04192E+000	1.04356E+000	6.43982E-004	...........
	512	517.275	1.04237E+000	1.04377E+000	6.42990E-004	...........
	513	518.283	1.04281E+000	1.04246E+000	6.44307E-004	...........
	514	519.292	1.04309E+000	1.04272E+000	6.43057E-004	...........
	515	520.3	1.04314E+000	1.04362E+000	6.44182E-004	...........
	516	521.308	1.04309E+000	1.04351E+000	6.43965E-004	...........
	517	522.317	1.04312E+000	1.04358E+000	6.44849E-004	...........
	518	523.325	1.04327E+000	1.04391E+000	6.43582E-004	...........
	519	524.333	1.04346E+000	1.04407E+000	6.42232E-004	...........
	520	525.342	1.04364E+000	1.04328E+000	6.43524E-004	...........
	521	526.35	1.04373E+000	1.04330E+000	6.43374E-004	...........
	522	527.358	1.04369E+000	1.04341E+000	6.44049E-004	...........
	523	528.367	1.04357E+000	1.04347E+000	6.44174E-004	...........
	524	529.375	1.04345E+000	1.04312E+000	6.43507E-004	...........
	525	530.383	1.04338E+000	1.04350E+000	6.44599E-004	...........
	526	531.392	1.04336E+000	1.04363E+000	6.45090E-004	...........
	527	532.4	1.04338E+000	1.04379E+000	6.44332E-004	...........
	528	533.408	1.04345E+000	1.04295E+000	6.42749E-004	...........
	529	534.417	1.04348E+000	1.04274E+000	6.42115E-004	...........
	530	535.425	1.04340E+000	1.04359E+000	6.44024E-004	...........
	531	536.433	1.04327E+000	1.04339E+000	6.43899E-004	...........
	532	537.442	1.04321E+000	1.04316E+000	6.43340E-004	...........
	533	538.45	1.04324E+000	1.04302E+000	6.41849E-004	...........
	534	539.458	1.04326E+000	1.04380E+000	6.43990E-004	...........
	535	540.467	1.04328E+000	1.04383E+000	6.42374E-004	...........
	536	541.475	1.04337E+000	1.04317E+000	6.42299E-004	...........
	537	542.483	1.04350E+000	1.04467E+000	6.41499E-004	...........
	538	543.492	1.04368E+000	1.04587E+000	6.44257E-004	...........
	539	544.5	1.04400E+000	1.04399E+000	6.41932E-004	...........
	540	545.508	1.04437E+000	1.04352E+000	6.42299E-004	...........
	541	546.517	1.04450E+000	1.04298E+000	6.42532E-004	...........
	542	547.525	1.04425E+000	1.04352E+000	6.43282E-004	...........
	543	548.533	1.04384E+000	1.04345E+000	6.43274E-004	...........
	544	549.542	1.04353E+000	1.04349E+000	6.43949E-004	...........
	545	550.55	1.04339E+000	1.04242E+000	6.40357E-004	...........
	546	551.558	1.04328E+000	1.04232E+000	6.41715E-004	...........
	547	552.567	1.04309E+000	1.04326E+000	6.42349E-004	...........
	548	553.575	1.04290E+000	1.04377E+000	6.42340E-004	...........
	549	554.583	1.04288E+000	1.04247E+000	6.41232E-004	...........
	550	555.592	1.04300E+000	1.04352E+000	6.42982E-004	...........
	551	556.6	1.04312E+000	1.04408E+000	6.41499E-004	...........
	552	557.608	1.04327E+000	1.04458E+000	6.41874E-004	...........
	553	558.617	1.04355E+000	1.04480E+000	6.42840E-004	...........
	554	559.625	1.04393E+000	1.04386E+000	6.42874E-004	...........
	555	560.633	1.04424E+000	1.04439E+000	6.42090E-004	...........
	556	561.642	1.04435E+000	1.04430E+000	6.41982E-004	...........
	557	562.65	1.04435E+000	1.04466E+000	6.44165E-004	...........
	558	563.658	1.04435E+000	1.04442E+000	6.42440E-004	...........
	559	564.667	1.04441E+000	1.04499E+000	6.44549E-004	...........
	560	565.675	1.04450E+000	1.04475E+000	6.43399E-004	...........
	561	566.683	1.04462E+000	1.04480E+000	6.43699E-004	...........
	562	567.692	1.04471E+000	1.04440E+000	6.42815E-004	...........
	563	568.7	1.04473E+000	1.04422E+000	6.43174E-004	...........
	564	569.708	1.04464E+000	1.04403E+000	6.45024E-004	...........
	565	570.717	1.04447E+000	1.04378E+000	6.44582E-004	...........
	566	571.725	1.04426E+000	1.04347E+000	6.44849E-004	...........
	567	572.733	1.04403E+000	1.04360E+000	6.45849E-004	...........
	568	573.742	1.04383E+000	1.04403E+000	6.44282E-004	...........
	569	574.75	1.04373E+000	1.04432E+000	6.43107E-004	...........
	570	575.758	1.04377E+000	1.04358E+000	6.44715E-004	...........
	571	576.767	1.04386E+000	1.04367E+000	6.45299E-004	...........
	572	577.775	1.04390E+000	1.04448E+000	6.42974E-004	...........
	573	578.783	1.04392E+000	1.04424E+000	6.43757E-004	...........
	574	579.792	1.04397E+000	1.04322E+000	6.44090E-004	...........
	575	580.8	1.04399E+000	1.04366E+000	6.45124E-004	...........
	576	581.808	1.04391E+000	1.04387E+000	6.45099E-004	...........
	577	582.817	1.04379E+000	1.04407E+000	6.43557E-004	...........
	578	583.825	1.04375E+000	1.04376E+000	6.45923E-004	...........
	579	584.833	1.04379E+000	1.04380E+000	6.45499E-004	...........
	580	585.842	1.04385E+000	1.04426E+000	6.43615E-004	...........
	581	586.85	1.04390E+000	1.04451E+000	6.43232E-004	...........
	582	587.858	1.04402E+000	1.04504E+000	6.45824E-004	...........
	583	588.867	1.04423E+000	1.04451E+000	6.43624E-004	...........
	584	589.875	1.04448E+000	1.04541E+000	6.44540E-004	...........
	585	590.883	1.04470E+000	1.04539E+000	6.44624E-004	...........
	586	591.892	1.04489E+000	1.04382E+000	6.45549E-004	...........
	587	592.9	1.04494E+000	1.04381E+000	6.43732E-004	...........
	588	593.908	1.04474E+000	1.04329E+000	6.44699E-004	...........
	589	594.917	1.04434E+000	1.04386E+000	6.44790E-004	...........
	590	595.925	1.04396E+000	1.04407E+000	6.42324E-004	...........
	591	596.933	1.04378E+000	1.04428E+000	6.44257E-004	...........
	592	597.942	1.04382E+000	1.04429E+000	6.42324E-004	...........
	593	598.95	1.04399E+000	1.04516E+000	6.44624E-004	...........
	594	599.958	1.04423E+000	1.04468E+000	6.44299E-004	...........
	595	600.967	1.04447E+000	1.04420E+000	6.43474E-004	...........
	596	601.975	1.04459E+000	1.04393E+000	6.44165E-004	...........
	597	602.983	1.04453E+000	1.04383E+000	6.44599E-004	...........
	598	603.992	1.04434E+000	1.04411E+000	6.44482E-004	...........
	599	605	1.04412E+000	1.04336E+000	6.46173E-004	...........
	600	606.008	1.04396E+000	1.04406E+000	6.44074E-004	...........
	601	607.017	1.04386E+000	1.04431E+000	6.45107E-004	...........
	602	608.025	1.04387E+000	1.04458E+000	6.44940E-004	...........
	603	609.033	1.04399E+000	1.04375E+000	6.43599E-004	...........
	604	610.042	1.04415E+000	1.04532E+000	6.45299E-004	...........
	605	611.05	1.04430E+000	1.04453E+000	6.44282E-004	...........
	606	612.058	1.04445E+000	1.04454E+000	6.43374E-004	...........
	607	613.067	1.04456E+000	1.04376E+000	6.43657E-004	...........
	608	614.075	1.04454E+000	1.04399E+000	6.45040E-004	...........
	609	615.083	1.04436E+000	1.04386E+000	6.44374E-004	...........
	610	616.092	1.04415E+000	1.04371E+000	6.44582E-004	...........
	611	617.1	1.04398E+000	1.04393E+000	6.44715E-004	...........
	612	618.108	1.04389E+000	1.04448E+000	6.44140E-004	...........
	613	619.117	1.04390E+000	1.04381E+000	6.46115E-004	...........
	614	620.125	1.04397E+000	1.04355E+000	6.45840E-004	...........
	615	621.133	1.04399E+000	1.04426E+000	6.44074E-004	...........
	616	622.142	1.04395E+000	1.04378E+000	6.45115E-004	...........
	617	623.15	1.04393E+000	1.04436E+000	6.44324E-004	...........
	618	624.158	1.04397E+000	1.04447E+000	6.44757E-004	...........
	619	625.167	1.04409E+000	1.04532E+000	6.46140E-004	...........
	620	626.175	1.04431E+000	1.04465E+000	6.45349E-004	...........
	621	627.183	1.04456E+000	1.04472E+000	6.45732E-004	...........
	622	628.192	1.04475E+000	1.04519E+000	6.45724E-004	...........
	623	629.2	1.04485E+000	1.04523E+000	6.45365E-004	...........
	624	630.208	1.04491E+000	1.04369E+000	6.44807E-004	...........
	625	631.217	1.04489E+000	1.04501E+000	6.45374E-004	...........
	626	632.225	1.04478E+000	1.04518E+000	6.44490E-004	...........
	627	633.233	1.04473E+000	1.04546E+000	6.44899E-004	...........
	628	634.242	1.04484E+000	1.04551E+000	6.44607E-004	...........
	629	635.25	1.04505E+000	1.04462E+000	6.43840E-004	...........
	630	636.258	1.04519E+000	1.04486E+000	6.44874E-004	...........
	631	637.267	1.04515E+000	1.04463E+000	6.44124E-004	...........
	632	638.275	1.04499E+000	1.04395E+000	6.43182E-004	...........
	633	639.283	1.04478E+000	1.04520E+000	6.45932E-004	...........
	634	640.292	1.04464E+000	1.04529E+000	6.45357E-004	...........
	635	641.3	1.04468E+000	1.04559E+000	6.43599E-004	...........
	636	642.308	1.04488E+000	1.04493E+000	6.45074E-004	...........
	637	643.317	1.04511E+000	1.04551E+000	6.43507E-004	...........
	638	644.325	1.04525E+000	1.04565E+000	6.43899E-004	...........
	639	645.333	1.04533E+000	1.04534E+000	6.44632E-004	...........
	640	646.342	1.04539E+000	1.04469E+000	6.44499E-004	...........
	641	647.35	1.04537E+000	1.04514E+000	6.44465E-004	...........
	642	648.358	1.04525E+000	1.04516E+000	6.44707E-004	...........
	643	649.367	1.04514E+000	1.04535E+000	6.43974E-004	...........
	644	650.375	1.04511E+000	1.04490E+000	6.44374E-004	...........
	645	651.383	1.04512E+000	1.04517E+000	6.45732E-004	...........
	646	652.392	1.04514E+000	1.04548E+000	6.44324E-004	...........
	647	653.4	1.04516E+000	1.04540E+000	6.44273E-004	...........
	648	654.408	1.04522E+000	1.04510E+000	6.44999E-004	...........
	649	655.417	1.04529E+000	1.04585E+000	6.43415E-004	...........
	650	656.425	1.04537E+000	1.04651E+000	6.45299E-004	...........
	651	657.433	1.04555E+000	1.04653E+000	6.44949E-004	...........
	652	658.442	1.04585E+000	1.04697E+000	6.44024E-004	...........
	653	659.45	1.04619E+000	1.04578E+000	6.43115E-004	...........
	654	660.458	1.04639E+000	1.04547E+000	6.43999E-004	...........
	655	661.467	1.04634E+000	1.04558E+000	6.46015E-004	...........
	656	662.475	1.04607E+000	1.04511E+000	6.46257E-004	...........
	657	663.483	1.04576E+000	1.04517E+000	6.45998E-004	...........
	658	664.492	1.04548E+000	1.04495E+000	6.46374E-004	...........
	659	665.5	1.04528E+000	1.04525E+000	6.46232E-004	...........
	660	666.508	1.04516E+000	1.04499E+000	6.46540E-004	...........
	661	667.517	1.04510E+000	1.04514E+000	6.46449E-004	...........
	662	668.525	1.04509E+000	1.04513E+000	6.45374E-004	...........
	663	669.533	1.04509E+000	1.04523E+000	6.46398E-004	...........
	664	670.542	1.04512E+000	1.04516E+000	6.45449E-004	...........
	665	671.55	1.04515E+000	1.04528E+000	6.45265E-004	...........
	666	672.558	1.04518E+000	1.04554E+000	6.45774E-004	...........
	667	673.567	1.04524E+000	1.04522E+000	6.44640E-004	...........
	668	674.575	1.04529E+000	1.04525E+000	6.45882E-004	...........
	669	675.583	1.04533E+000	1.04550E+000	6.44390E-004	...........
	670	676.592	1.04534E+000	1.04577E+000	6.45165E-004	...........
	671	677.6	1.04540E+000	1.04578E+000	6.43840E-004	...........
	672	678.608	1.04550E+000	1.04551E+000	6.45857E-004	...........
	673	679.617	1.04562E+000	1.04653E+000	6.45907E-004	...........
	674	680.625	1.04574E+000	1.04602E+000	6.45290E-004	...........
	675	681.633	1.04590E+000	1.04648E+000	6.47032E-004	...........
	676	682.642	1.04607E+000	1.04680E+000	6.46240E-004	...........
	677	683.65	1.04626E+000	1.04656E+000	6.45365E-004	...........
	678	684.658	1.04641E+000	1.04572E+000	6.44424E-004	...........
	679	685.667	1.04645E+000	1.04566E+000	6.45149E-004	...........
	680	686.675	1.04629E+000	1.04528E+000	6.45907E-004	...........
	681	687.683	1.04600E+000	1.04482E+000	6.45890E-004	...........
	682	688.692	1.04565E+000	1.04499E+000	6.45157E-004	...........
	683	689.7	1.04533E+000	1.04487E+000	6.45407E-004	...........
	684	690.708	1.04508E+000	1.04395E+000	6.45715E-004	...........
	685	691.717	1.04489E+000	1.04563E+000	6.45840E-004	...........
	686	692.725	1.04478E+000	1.04559E+000	6.45724E-004	...........
	687	693.733	1.04487E+000	1.04541E+000	6.44649E-004	...........
	688	694.742	1.04510E+000	1.04573E+000	6.45757E-004	...........
	689	695.75	1.04535E+000	1.04567E+000	6.44840E-004	...........
	690	696.758	1.04551E+000	1.04541E+000	6.46407E-004	...........
	691	697.767	1.04558E+000	1.04540E+000	6.46774E-004	...........
	692	698.775	1.04557E+000	1.04531E+000	6.44774E-004	...........
	693	699.783	1.04550E+000	1.04557E+000	6.43790E-004	...........
	694	700.792	1.04545E+000	1.04542E+000	6.44665E-004	...........
	695	701.8	1.04545E+000	1.04649E+000	6.45365E-004	...........
	696	702.808	1.04557E+000	1.04688E+000	6.45807E-004	...........
	697	703.817	1.04583E+000	1.04620E+000	6.45449E-004	...........
	698	704.825	1.04614E+000	1.04619E+000	6.44757E-004	...........
	699	705.833	1.04633E+000	1.04599E+000	6.44615E-004	...........
	700	706.842	1.04631E+000	1.04503E+000	6.45074E-004	...........
	701	707.85	1.04612E+000	1.04561E+000	6.44315E-004	...........
	702	708.858	1.04585E+000	1.04568E+000	6.43090E-004	...........
	703	709.867	1.04565E+000	1.04582E+000	6.43324E-004	...........
	704	710.875	1.04558E+000	1.04527E+000	6.45165E-004	...........
	705	711.883	1.04557E+000	1.04509E+000	6.44415E-004	...........
	706	712.892	1.04553E+000	1.04577E+000	6.42424E-004	...........
	707	713.9	1.04547E+000	1.04597E+000	6.44282E-004	...........
	708	714.908	1.04549E+000	1.04566E+000	6.43590E-004	...........
	709	715.917	1.04559E+000	1.04564E+000	6.44915E-004	...........
	710	716.925	1.04568E+000	1.04561E+000	6.45623E-004	...........
	711	717.933	1.04570E+000	1.04515E+000	6.45807E-004	...........
	712	718.942	1.04562E+000	1.04490E+000	6.46040E-004	...........
	713	719.95	1.04547E+000	1.04549E+000	6.45207E-004	...........
	714	720.958	1.04533E+000	1.04603E+000	6.45474E-004	...........
	715	721.967	1.04533E+000	1.04569E+000	6.45165E-004	...........
	716	722.975	1.04547E+000	1.04583E+000	6.44149E-004	...........
	717	723.983	1.04564E+000	1.04609E+000	6.44340E-004	...........
	718	724.992	1.04578E+000	1.04594E+000	6.44673E-004	...........
	719	726	1.04587E+000	1.04555E+000	6.43899E-004	...........
	720	727.008	1.04590E+000	1.04611E+000	6.44482E-004	...........
	721	728.017	1.04590E+000	1.04645E+000	6.46374E-004	...........
	722	729.025	1.04595E+000	1.04660E+000	6.45257E-004	...........
	723	730.033	1.04608E+000	1.04564E+000	6.44090E-004	...........
	724	731.042	1.04619E+000	1.04595E+000	6.43982E-004	...........
	725	732.05	1.04617E+000	1.04563E+000	6.44765E-004	...........
	726	733.058	1.04604E+000	1.04595E+000	6.45257E-004	...........
	727	734.067	1.04591E+000	1.04566E+000	6.45507E-004	...........
	728	735.075	1.04584E+000	1.04646E+000	6.45065E-004	...........
	729	736.083	1.04586E+000	1.04635E+000	6.45140E-004	...........
	730	737.092	1.04597E+000	1.04573E+000	6.45549E-004	...........
	731	738.1	1.04607E+000	1.04557E+000	6.44615E-004	...........
	732	739.108	1.04605E+000	1.04603E+000	6.45215E-004	...........
	733	740.117	1.04595E+000	1.04573E+000	6.45049E-004	...........
	734	741.125	1.04586E+000	1.04570E+000	6.44874E-004	...........
	735	742.133	1.04580E+000	1.04542E+000	6.46257E-004	...........
	736	743.142	1.04575E+000	1.04648E+000	6.46240E-004	...........
	737	744.15	1.04576E+000	1.04641E+000	6.45982E-004	...........
	738	745.158	1.04588E+000	1.04604E+000	6.44774E-004	...........
	739	746.167	1.04605E+000	1.04590E+000	6.43490E-004	...........
	740	747.175	1.04615E+000	1.04656E+000	6.46190E-004	...........
	741	748.183	1.04618E+000	1.04672E+000	6.45290E-004	...........
	742	749.192	1.04626E+000	1.04654E+000	6.46374E-004	...........
	743	750.2	1.04639E+000	1.04661E+000	6.45865E-004	...........
	744	751.208	1.04651E+000	1.04683E+000	6.46765E-004	...........
	745	752.217	1.04662E+000	1.04742E+000	6.44182E-004	...........
	746	753.225	1.04675E+000	1.04734E+000	6.43115E-004	...........
	747	754.233	1.04693E+000	1.04701E+000	6.45540E-004	...........
	748	755.242	1.04708E+000	1.04627E+000	6.44432E-004	...........
	749	756.25	1.04707E+000	1.04637E+000	6.44724E-004	...........
	750	757.258	1.04689E+000	1.04648E+000	6.44999E-004	...........
	751	758.267	1.04667E+000	1.04675E+000	6.45799E-004	...........
	752	759.275	1.04654E+000	1.04683E+000	6.46115E-004	...........
	753	760.283	1.04653E+000	1.04583E+000	6.45565E-004	...........
	754	761.292	1.04654E+000	1.04656E+000	6.47157E-004	...........
	755	762.3	1.04650E+000	1.04696E+000	6.45715E-004	...........
	756	763.308	1.04648E+000	1.04676E+000	6.45915E-004	...........
	757	764.317	1.04654E+000	1.04607E+000	6.45132E-004	...........
	758	765.325	1.04659E+000	1.04638E+000	6.46290E-004	...........
	759	766.333	1.04655E+000	1.04652E+000	6.46299E-004	...........
	760	767.342	1.04647E+000	1.04658E+000	6.46890E-004	...........
	761	768.35	1.04644E+000	1.04662E+000	6.46640E-004	...........
	762	769.358	1.04648E+000	1.04703E+000	6.45899E-004	...........
	763	770.367	1.04659E+000	1.04716E+000	6.44665E-004	...........
	764	771.375	1.04675E+000	1.04772E+000	6.45299E-004	...........
	765	772.383	1.04696E+000	1.04696E+000	6.45899E-004	...........
	766	773.392	1.04715E+000	1.04746E+000	6.44732E-004	...........
	767	774.4	1.04728E+000	1.04756E+000	6.44424E-004	...........
	768	775.408	1.04731E+000	1.04611E+000	6.45815E-004	...........
	769	776.417	1.04726E+000	1.04738E+000	6.44074E-004	...........
	770	777.425	1.04723E+000	1.05206E+000	6.45340E-004	...........
	771	778.433	1.04752E+000	1.04712E+000	6.46215E-004	...........
	772	779.442	1.04811E+000	1.04680E+000	6.47165E-004	...........
	773	780.45	1.04841E+000	1.04712E+000	6.45682E-004	...........
	774	781.458	1.04814E+000	1.04694E+000	6.45965E-004	...........
	775	782.467	1.04762E+000	1.04710E+000	6.45124E-004	...........
	776	783.475	1.04722E+000	1.04676E+000	6.46257E-004	...........
	777	784.483	1.04703E+000	1.04736E+000	6.45374E-004	...........
	778	785.492	1.04697E+000	1.04669E+000	6.47523E-004	...........
	779	786.5	1.04698E+000	1.04699E+000	6.47749E-004	...........
	780	787.508	1.04698E+000	1.04722E+000	6.46407E-004	...........
	781	788.517	1.04699E+000	1.04725E+000	6.45240E-004	...........
	782	789.525	1.04703E+000	1.04645E+000	6.46590E-004	...........
	783	790.533	1.04705E+000	1.04739E+000	6.45540E-004	...........
	784	791.542	1.04703E+000	1.04723E+000	6.45140E-004	...........
	785	792.55	1.04704E+000	1.04725E+000	6.45807E-004	...........
	786	793.558	1.04711E+000	1.04714E+000	6.44774E-004	...........
	787	794.567	1.04717E+000	1.04718E+000	6.45765E-004	...........
	788	795.575	1.04722E+000	1.04820E+000	6.46657E-004	...........
	789	796.583	1.04731E+000	1.04802E+000	6.45757E-004	...........
	790	797.592	1.04750E+000	1.04756E+000	6.44782E-004	...........
	791	798.6	1.04772E+000	1.04870E+000	6.44740E-004	...........
	792	799.608	1.04790E+000	1.04841E+000	6.45707E-004	...........
	793	800.617	1.04804E+000	1.04667E+000	6.46199E-004	...........
	794	801.625	1.04804E+000	1.04644E+000	6.46390E-004	...........
	795	802.633	1.04777E+000	1.04761E+000	6.43815E-004	...........
	796	803.642	1.04739E+000	1.04673E+000	6.45982E-004	...........
	797	804.65	1.04711E+000	1.04667E+000	6.46440E-004	...........
	798	805.658	1.04697E+000	1.04661E+000	6.45249E-004	...........
	799	806.667	1.04686E+000	1.04662E+000	6.45832E-004	...........
	800	807.675	1.04676E+000	1.04707E+000	6.44857E-004	...........
	801	808.683	1.04672E+000	1.04701E+000	6.45832E-004	...........
	802	809.692	1.04677E+000	1.04655E+000	6.44965E-004	...........
	803	810.7	1.04683E+000	1.04700E+000	6.45515E-004	...........
	804	811.708	1.04685E+000	1.04694E+000	6.44699E-004	...........
	805	812.717	1.04687E+000	1.04756E+000	6.43507E-004	...........
	806	813.725	1.04695E+000	1.04711E+000	6.44515E-004	...........
	807	814.733	1.04707E+000	1.04715E+000	6.43690E-004	...........
	808	815.742	1.04718E+000	1.04791E+000	6.43465E-004	...........
	809	816.75	1.04727E+000	1.04680E+000	6.43615E-004	...........
	810	817.758	1.04732E+000	1.04734E+000	6.42990E-004	...........
	811	818.767	1.04734E+000	1.04817E+000	6.44599E-004	...........
	812	819.775	1.04739E+000	1.04815E+000	6.43965E-004	...........
	813	820.783	1.04756E+000	1.04823E+000	6.45332E-004	...........
	814	821.792	1.04781E+000	1.04804E+000	6.44782E-004	...........
	815	822.8	1.04801E+000	1.04806E+000	6.44565E-004	...........
	816	823.808	1.04809E+000	1.04752E+000	6.43465E-004	...........
	817	824.817	1.04804E+000	1.04714E+000	6.43490E-004	...........
	818	825.825	1.04787E+000	1.04745E+000	6.42274E-004	...........
	819	826.833	1.04766E+000	1.04791E+000	6.44507E-004	...........
	820	827.842	1.04752E+000	1.04709E+000	6.45332E-004	...........
	821	828.85	1.04748E+000	1.04766E+000	6.42532E-004	...........
	822	829.858	1.04749E+000	1.04792E+000	6.44324E-004	...........
	823	830.867	1.04754E+000	1.04833E+000	6.45307E-004	...........
	824	831.875	1.04767E+000	1.04727E+000	6.43382E-004	...........
	825	832.883	1.04777E+000	1.04715E+000	6.44465E-004	...........
	826	833.892	1.04775E+000	1.04790E+000	6.45199E-004	...........
	827	834.9	1.04765E+000	1.04786E+000	6.45357E-004	...........
	828	835.908	1.04760E+000	1.04761E+000	6.44257E-004	...........
	829	836.917	1.04763E+000	1.04736E+000	6.43965E-004	...........
	830	837.925	1.04766E+000	1.04818E+000	6.45024E-004	...........
	831	838.933	1.04768E+000	1.04807E+000	6.46665E-004	...........
	832	839.942	1.04776E+000	1.04808E+000	6.46207E-004	...........
	833	840.95	1.04788E+000	1.04768E+000	6.44899E-004	...........
	834	841.958	1.04796E+000	1.04844E+000	6.46024E-004	...........
	835	842.967	1.04802E+000	1.04882E+000	6.43874E-004	...........
	836	843.975	1.04813E+000	1.04828E+000	6.45732E-004	...........
	837	844.983	1.04828E+000	1.04816E+000	6.45724E-004	...........
	838	845.992	1.04837E+000	1.04801E+000	6.45923E-004	...........
	839	847	1.04832E+000	1.04707E+000	6.45074E-004	...........
	840	848.008	1.04812E+000	1.04717E+000	6.44890E-004	...........
	841	849.017	1.04783E+000	1.04808E+000	6.46024E-004	...........
	842	850.025	1.04760E+000	1.04778E+000	6.46199E-004	...........
	843	851.033	1.04756E+000	1.04787E+000	6.45182E-004	...........
	844	852.042	1.04767E+000	1.04852E+000	6.45799E-004	...........
	845	853.05	1.04784E+000	1.04807E+000	6.46057E-004	...........
	846	854.058	1.04801E+000	1.04829E+000	6.46224E-004	...........
	847	855.067	1.04814E+000	1.04802E+000	6.45190E-004	...........
	848	856.075	1.04820E+000	1.04880E+000	6.45440E-004	...........
	849	857.083	1.04826E+000	1.04866E+000	6.44840E-004	...........
	850	858.092	1.04835E+000	1.04823E+000	6.45932E-004	...........
	851	859.1	1.04844E+000	1.04805E+000	6.46674E-004	...........
	852	860.108	1.04845E+000	1.04878E+000	6.45015E-004	...........
	853	861.117	1.04841E+000	1.04861E+000	6.44299E-004	...........
	854	862.125	1.04842E+000	1.04865E+000	6.45082E-004	...........
	855	863.133	1.04850E+000	1.04886E+000	6.45748E-004	...........
	856	864.142	1.04861E+000	1.04919E+000	6.44549E-004	...........
	857	865.15	1.04872E+000	1.04814E+000	6.46507E-004	...........
	858	866.158	1.04877E+000	1.04854E+000	6.45990E-004	...........
	859	867.167	1.04872E+000	1.04843E+000	6.45132E-004	...........
	860	868.175	1.04861E+000	1.04846E+000	6.46407E-004	...........
	861	869.183	1.04851E+000	1.04840E+000	6.46415E-004	...........
	862	870.192	1.04839E+000	1.04474E+000	6.45615E-004	...........
	863	871.2	1.04816E+000	1.05305E+000	6.46290E-004	...........
	864	872.208	1.04816E+000	1.05330E+000	6.46707E-004	...........
	865	873.217	1.04898E+000	1.05239E+000	6.44715E-004	...........
	866	874.225	1.05043E+000	1.05249E+000	6.45482E-004	...........
	867	875.233	1.05174E+000	1.05333E+000	6.45990E-004	...........
	868	876.242	1.05250E+000	1.05350E+000	6.45524E-004	...........
	869	877.25	1.05289E+000	1.05312E+000	6.46940E-004	...........
	870	878.258	1.05312E+000	1.05345E+000	6.44324E-004	...........
	871	879.267	1.05327E+000	1.05436E+000	6.44857E-004	...........
	872	880.275	1.05342E+000	1.05363E+000	6.44149E-004	...........
	873	881.283	1.05361E+000	1.05392E+000	6.42032E-004	...........
	874	882.292	1.05374E+000	1.05259E+000	6.43990E-004	...........
	875	883.3	1.05372E+000	1.05366E+000	6.44040E-004	...........
	876	884.308	1.05359E+000	1.05462E+000	6.45232E-004	...........
	877	885.317	1.05357E+000	1.05508E+000	6.44757E-004	...........
	878	886.325	1.05386E+000	1.05644E+000	6.45932E-004	...........
	879	887.333	1.05439E+000	1.05350E+000	6.44740E-004	...........
	880	888.342	1.05481E+000	1.05319E+000	6.45507E-004	...........
	881	889.35	1.05478E+000	1.05359E+000	6.43090E-004	...........
	882	890.358	1.05434E+000	1.05331E+000	6.44015E-004	...........
	883	891.367	1.05385E+000	1.05316E+000	6.45832E-004	...........
	884	892.375	1.05352E+000	1.05370E+000	6.43357E-004	...........
	885	893.383	1.05336E+000	1.05258E+000	6.44490E-004	...........
	886	894.392	1.05327E+000	1.05251E+000	6.44349E-004	...........
	887	895.4	1.05314E+000	1.05313E+000	6.45524E-004	...........
	888	896.408	1.05299E+000	1.05386E+000	6.41874E-004	...........
	889	897.417	1.05298E+000	1.05340E+000	6.45707E-004	...........
	890	898.425	1.05314E+000	1.05347E+000	6.45182E-004	...........
	891	899.433	1.05334E+000	1.05344E+000	6.47074E-004	...........
	892	900.442	1.05345E+000	1.05347E+000	6.46349E-004	...........
	893	901.45	1.05349E+000	1.05406E+000	6.44890E-004	...........
	894	902.458	1.05355E+000	1.05434E+000	6.46865E-004	...........
	895	903.467	1.05369E+000	1.05381E+000	6.45340E-004	...........
	896	904.475	1.05380E+000	1.05059E+000	6.46832E-004	...........
	897	905.483	1.05364E+000	1.05396E+000	6.45049E-004	...........
	898	906.492	1.05327E+000	1.05453E+000	6.47332E-004	...........
	899	907.5	1.05311E+000	1.05457E+000	6.46590E-004	...........
	900	908.508	1.05341E+000	1.05442E+000	6.45840E-004	...........
	901	909.517	1.05390E+000	1.05478E+000	6.46565E-004	...........
	902	910.525	1.05432E+000	1.05545E+000	6.43899E-004	...........
	903	911.533	1.05462E+000	1.05503E+000	6.46649E-004	...........
	904	912.542	1.05487E+000	1.05547E+000	6.44440E-004	...........
	905	913.55	1.05506E+000	1.05466E+000	6.46723E-004	...........
	906	914.558	1.05513E+000	1.05419E+000	6.45390E-004	...........
	907	915.567	1.05501E+000	1.05365E+000	6.43899E-004	...........
	908	916.575	1.05471E+000	1.05416E+000	6.45807E-004	...........
	909	917.583	1.05436E+000	1.05381E+000	6.45199E-004	...........
	910	918.592	1.05411E+000	1.05424E+000	6.46615E-004	...........
	911	919.6	1.05400E+000	1.05417E+000	6.45657E-004	...........
	912	920.608	1.05402E+000	1.05457E+000	6.45857E-004	...........
	913	921.617	1.05413E+000	1.05476E+000	6.46674E-004	...........
	914	922.625	1.05429E+000	1.05481E+000	6.46907E-004	...........
	915	923.633	1.05446E+000	1.05395E+000	6.45282E-004	...........
	916	924.642	1.05455E+000	1.05441E+000	6.45182E-004	...........
	917	925.65	1.05452E+000	1.05504E+000	6.46165E-004	...........
	918	926.658	1.05449E+000	1.05471E+000	6.46340E-004	...........
	919	927.667	1.05455E+000	1.05480E+000	6.46982E-004	...........
	920	928.675	1.05467E+000	1.05539E+000	6.44724E-004	...........
	921	929.683	1.05481E+000	1.05514E+000	6.45615E-004	...........
	922	930.692	1.05496E+000	1.05524E+000	6.45299E-004	...........
	923	931.7	1.05510E+000	1.05555E+000	6.45057E-004	...........
	924	932.708	1.05523E+000	1.05612E+000	6.45799E-004	...........
	925	933.717	1.05535E+000	1.05367E+000	6.45115E-004	...........
	926	934.725	1.05532E+000	1.05328E+000	6.45457E-004	...........
	927	935.733	1.05502E+000	1.05531E+000	6.44440E-004	...........
	928	936.742	1.05464E+000	1.05635E+000	6.46107E-004	...........
	929	937.75	1.05461E+000	1.05596E+000	6.46290E-004	...........
	930	938.758	1.05501E+000	1.05639E+000	6.45632E-004	...........
	931	939.767	1.05554E+000	1.05586E+000	6.46499E-004	...........
	932	940.775	1.05593E+000	1.05638E+000	6.46307E-004	...........
	933	941.783	1.05610E+000	1.05517E+000	6.45407E-004	...........
	934	942.792	1.05605E+000	1.05464E+000	6.46749E-004	...........
	935	943.8	1.05580E+000	1.05452E+000	6.47015E-004	...........
	936	944.808	1.05538E+000	1.05409E+000	6.45240E-004	...........
	937	945.817	1.05493E+000	1.05432E+000	6.46274E-004	...........
	938	946.825	1.05458E+000	1.05476E+000	6.47074E-004	...........
	939	947.833	1.05442E+000	1.05482E+000	6.46599E-004	...........
	940	948.842	1.05445E+000	1.05485E+000	6.45965E-004	...........
	941	949.85	1.05458E+000	1.05482E+000	6.45274E-004	...........
	942	950.86	1.05472E+000	1.05497E+000	6.45424E-004	...........
	943	951.87	1.05482E+000	1.05523E+000	6.42807E-004	...........
	944	952.88	1.05491E+000	1.05526E+000	6.43774E-004	...........
	945	953.88	1.05502E+000	1.05559E+000	6.44282E-004	...........
	946	954.89	1.05515E+000	1.05483E+000	6.46832E-004	...........
	947	955.9	1.05522E+000	1.05429E+000	6.46207E-004	...........
	948	956.91	1.05514E+000	1.05510E+000	6.46682E-004	...........
	949	957.92	1.05499E+000	1.05540E+000	6.44974E-004	...........
	950	958.92	1.05492E+000	1.05546E+000	6.44449E-004	...........
	951	959.93	1.05501E+000	1.05505E+000	6.45957E-004	...........
	952	960.94	1.05515E+000	1.05506E+000	6.46374E-004	...........
	953	961.95	1.05522E+000	1.05568E+000	6.45140E-004	...........
	954	962.96	1.05524E+000	1.05497E+000	6.44915E-004	...........
	955	963.97	1.05525E+000	1.05496E+000	6.45932E-004	...........
	956	964.97	1.05524E+000	1.05575E+000	6.45482E-004	...........
	957	965.98	1.05521E+000	1.05445E+000	6.46465E-004	...........
	958	966.99	1.05517E+000	1.05469E+000	6.46124E-004	...........
	959	968	1.05508E+000	1.05565E+000	6.44607E-004	...........
	960	969.01	1.05502E+000	1.05569E+000	6.45299E-004	...........
	961	970.02	1.05511E+000	1.05606E+000	6.46749E-004	...........
	962	971.02	1.05536E+000	1.05665E+000	6.44849E-004	...........
	963	972.03	1.05571E+000	1.05698E+000	6.45990E-004	...........
	964	973.04	1.05607E+000	1.05533E+000	6.43549E-004	...........
	965	974.05	1.05627E+000	1.05478E+000	6.45732E-004	...........
	966	975.06	1.05613E+000	1.05483E+000	6.45140E-004	...........
	967	976.07	1.05569E+000	1.05341E+000	6.45799E-004	...........
	968	977.08	1.05511E+000	1.05404E+000	6.44507E-004	...........
	969	978.08	1.05458E+000	1.05477E+000	6.45923E-004	...........
	970	979.09	1.05427E+000	1.05483E+000	6.45674E-004	...........
	971	980.1	1.05427E+000	1.05513E+000	6.45265E-004	...........
	972	981.11	1.05448E+000	1.05505E+000	6.44582E-004	...........
	973	982.12	1.05476E+000	1.05567E+000	6.43990E-004	...........
	974	983.13	1.05500E+000	1.05523E+000	6.42990E-004	...........
	975	984.13	1.05519E+000	1.05503E+000	6.45040E-004	...........
	976	985.14	1.05527E+000	1.05505E+000	6.44099E-004	...........
	977	986.15	1.05526E+000	1.05569E+000	6.44557E-004	...........
	978	987.16	1.05521E+000	1.05404E+000	6.44574E-004	...........
	979	988.17	1.05511E+000	1.05356E+000	6.45482E-004	...........
	980	989.17	1.05490E+000	1.05691E+000	6.42065E-004	...........
	981	990.18	1.05479E+000	1.05621E+000	6.45215E-004	...........
	982	991.19	1.05503E+000	1.05605E+000	6.46840E-004	...........
	983	992.2	1.05551E+000	1.05617E+000	6.47207E-004	...........
	984	993.21	1.05591E+000	1.05590E+000	6.45315E-004	...........
	985	994.22	1.05608E+000	1.05578E+000	6.44990E-004	...........
	986	995.22	1.05608E+000	1.05593E+000	6.45890E-004	...........
	987	996.23	1.05600E+000	1.05620E+000	6.45549E-004	...........
	988	997.24	1.05596E+000	1.05594E+000	6.45282E-004	...........
	989	998.25	1.05594E+000	1.05447E+000	6.45732E-004	...........
	990	999.26	1.05582E+000	1.05483E+000	6.45590E-004	...........
	991	1000.27	1.05556E+000	1.05661E+000	6.44657E-004	...........
	992	1001.27	1.05540E+000	1.05681E+000	6.41940E-004	...........
	993	1002.28	1.05558E+000	1.05750E+000	6.43315E-004	...........
	994	1003.29	1.05613E+000	1.06025E+000	6.43840E-004	...........
	995	1004.3	1.05690E+000	1.05586E+000	6.46099E-004	...........
	996	1005.31	1.05752E+000	1.05530E+000	6.42324E-004	...........
	997	1006.32	1.05753E+000	1.05536E+000	6.43607E-004	...........
	998	1007.33	1.05691E+000	1.05530E+000	6.42524E-004	...........
	999	1008.33	1.05614E+000	1.05514E+000	6.44774E-004	...........
	1000	1009.34	1.05556E+000	1.05412E+000	6.43674E-004	...........
	1001	1010.35	1.05517E+000	1.05409E+000	6.45024E-004	...........
	1002	1011.36	1.05485E+000	1.05516E+000	6.44374E-004	...........
	1003	1012.37	1.05464E+000	1.05582E+000	6.44807E-004	...........
	1004	1013.38	1.05469E+000	1.05560E+000	6.43957E-004	...........
	1005	1014.38	1.05499E+000	1.05574E+000	6.44724E-004	...........
	1006	1015.39	1.05534E+000	1.05609E+000	6.44365E-004	...........
	1007	1016.4	1.05561E+000	1.05602E+000	6.44290E-004	...........
	1008	1017.41	1.05580E+000	1.05555E+000	6.42024E-004	...........
	1009	1018.42	1.05588E+000	1.05552E+000	6.41907E-004	...........
	1010	1019.42	1.05585E+000	1.05633E+000	6.45065E-004	...........
	1011	1020.43	1.05579E+000	1.05479E+000	6.44449E-004	...........
	1012	1021.44	1.05570E+000	1.05467E+000	6.43940E-004	...........
	1013	1022.45	1.05554E+000	1.05629E+000	6.45599E-004	...........
	1014	1023.46	1.05540E+000	1.05594E+000	6.45282E-004	...........
	1015	1024.47	1.05544E+000	1.05610E+000	6.46573E-004	...........
	1016	1025.47	1.05565E+000	1.05632E+000	6.45282E-004	...........
	1017	1026.48	1.05591E+000	1.05682E+000	6.41574E-004	...........
	1018	1027.49	1.05615E+000	1.05678E+000	6.42107E-004	...........
	1019	1028.5	1.05640E+000	1.05767E+000	6.43557E-004	...........
	1020	1029.51	1.05669E+000	1.05744E+000	6.43257E-004	...........
	1021	1030.52	1.05700E+000	1.05785E+000	6.44349E-004	...........
	1022	1031.53	1.05726E+000	1.05599E+000	6.42274E-004	...........
	1023	1032.53	1.05732E+000	1.05642E+000	6.43757E-004	...........
	1024	1033.54	1.05715E+000	1.05772E+000	6.43865E-004	...........
	1025	1034.55	1.05698E+000	1.05879E+000	6.43024E-004	...........
	1026	1035.56	1.05706E+000	1.05595E+000	6.45257E-004	...........
	1027	1036.57	1.05726E+000	1.05601E+000	6.45840E-004	...........
	1028	1037.57	1.05719E+000	1.05564E+000	6.42440E-004	...........
	1029	1038.58	1.05679E+000	1.05655E+000	6.45532E-004	...........
	1030	1039.59	1.05638E+000	1.05630E+000	6.44740E-004	...........
	1031	1040.6	1.05618E+000	1.05636E+000	6.46249E-004	...........
	1032	1041.61	1.05619E+000	1.05633E+000	6.45524E-004	...........
	1033	1042.62	1.05624E+000	1.05536E+000	6.45799E-004	...........
	1034	1043.63	1.05623E+000	1.05665E+000	6.44815E-004	...........
	1035	1044.63	1.05616E+000	1.05654E+000	6.45524E-004	...........
	1036	1045.64	1.05617E+000	1.05695E+000	6.41782E-004	...........
	1037	1046.65	1.05632E+000	1.05638E+000	6.45107E-004	...........
	1038	1047.66	1.05649E+000	1.05655E+000	6.45590E-004	...........
	1039	1048.67	1.05658E+000	1.05626E+000	6.45165E-004	...........
	1040	1049.68	1.05656E+000	1.05645E+000	6.45215E-004	...........
	1041	1050.68	1.05650E+000	1.05669E+000	6.43757E-004	...........
	1042	1051.69	1.05648E+000	1.05722E+000	6.44607E-004	...........
	1043	1052.7	1.05656E+000	1.05700E+000	6.41840E-004	...........
	1044	1053.71	1.05672E+000	1.05626E+000	6.45665E-004	...........
	1045	1054.72	1.05683E+000	1.05717E+000	6.42182E-004	...........
	1046	1055.72	1.05686E+000	1.05792E+000	6.44965E-004	...........
	1047	1056.73	1.05696E+000	1.05766E+000	6.45265E-004	...........
	1048	1057.74	1.05717E+000	1.05703E+000	6.42882E-004	...........
	1049	1058.75	1.05736E+000	1.05698E+000	6.41140E-004	...........
	1050	1059.76	1.05738E+000	1.05665E+000	6.43590E-004	...........
	1051	1060.77	1.05724E+000	1.05759E+000	6.44849E-004	...........
	1052	1061.78	1.05711E+000	1.05729E+000	6.44207E-004	...........
	1053	1062.78	1.05711E+000	1.05749E+000	6.44624E-004	...........
	1054	1063.79	1.05719E+000	1.05653E+000	6.45149E-004	...........
	1055	1064.8	1.05723E+000	1.05753E+000	6.43707E-004	...........
	1056	1065.81	1.05721E+000	1.05749E+000	6.43432E-004	...........
	1057	1066.82	1.05720E+000	1.05674E+000	6.44273E-004	...........
	1058	1067.82	1.05720E+000	1.05695E+000	6.42424E-004	...........
	1059	1068.83	1.05715E+000	1.05682E+000	6.43249E-004	...........
	1060	1069.84	1.05705E+000	1.05694E+000	6.41924E-004	...........
	1061	1070.85	1.05695E+000	1.05643E+000	6.45374E-004	...........
	1062	1071.86	1.05684E+000	1.05612E+000	6.46149E-004	...........
	1063	1072.87	1.05670E+000	1.05639E+000	6.45449E-004	...........
	1064	1073.88	1.05652E+000	1.05611E+000	6.45574E-004	...........
	1065	1074.88	1.05638E+000	1.05683E+000	6.42732E-004	...........
	1066	1075.89	1.05634E+000	1.05663E+000	6.44382E-004	...........
	1067	1076.9	1.05642E+000	1.05725E+000	6.43357E-004	...........
	1068	1077.91	1.05659E+000	1.05737E+000	6.45124E-004	...........
	1069	1078.92	1.05682E+000	1.05738E+000	6.44415E-004	...........
	1070	1079.93	1.05706E+000	1.05743E+000	6.43990E-004	...........
	1071	1080.93	1.05723E+000	1.05690E+000	6.41665E-004	...........
	1072	1081.94	1.05730E+000	1.05702E+000	6.43840E-004	...........
	1073	1082.95	1.05724E+000	1.05653E+000	6.44374E-004	...........
	1074	1083.96	1.05710E+000	1.05740E+000	6.43974E-004	...........
	1075	1084.97	1.05701E+000	1.05808E+000	6.44157E-004	...........
	1076	1085.97	1.05709E+000	1.05761E+000	6.43649E-004	...........
	1077	1086.98	1.05731E+000	1.05753E+000	6.44515E-004	...........
	1078	1087.99	1.05754E+000	1.05833E+000	6.43274E-004	...........
	1079	1089	1.05770E+000	1.05785E+000	6.43099E-004	...........
	1080	1090.01	1.05782E+000	1.05794E+000	6.44657E-004	...........
	1081	1091.02	1.05792E+000	1.05821E+000	6.44632E-004	...........
	1082	1092.03	1.05799E+000	1.05851E+000	6.41540E-004	...........
	1083	1093.03	1.05809E+000	1.05906E+000	6.42790E-004	...........
	1084	1094.04	1.05823E+000	1.05636E+000	6.44449E-004	...........
	1085	1095.05	1.05823E+000	1.05699E+000	6.42307E-004	...........
	1086	1096.06	1.05794E+000	1.05665E+000	6.43574E-004	...........
	1087	1097.07	1.05747E+000	1.05654E+000	6.44599E-004	...........
	1088	1098.07	1.05706E+000	1.05779E+000	6.44015E-004	...........
	1089	1099.08	1.05690E+000	1.05771E+000	6.43815E-004	...........
	1090	1100.09	1.05701E+000	1.05730E+000	6.43290E-004	...........
	1091	1101.1	1.05724E+000	1.05713E+000	6.42957E-004	...........
	1092	1102.11	1.05737E+000	1.05719E+000	6.41682E-004	...........
	1093	1103.12	1.05733E+000	1.05518E+000	6.41982E-004	...........
	1094	1104.13	1.05707E+000	1.05626E+000	6.42090E-004	...........
	1095	1105.13	1.05668E+000	1.05672E+000	6.41207E-004	...........
	1096	1106.14	1.05639E+000	1.05744E+000	6.43674E-004	...........
	1097	1107.15	1.05641E+000	1.05765E+000	6.43740E-004	...........
	1098	1108.16	1.05671E+000	1.05766E+000	6.44649E-004	...........
	1099	1109.17	1.05711E+000	1.05775E+000	6.43699E-004	...........
	1100	1110.18	1.05744E+000	1.05799E+000	6.43507E-004	...........
	1101	1111.18	1.05766E+000	1.05795E+000	6.43824E-004	...........
	1102	1112.19	1.05780E+000	1.05796E+000	6.43682E-004	...........
	1103	1113.2	1.05788E+000	1.05764E+000	6.44199E-004	...........
	1104	1114.21	1.05788E+000	1.05669E+000	6.41765E-004	...........
	1105	1115.22	1.05773E+000	1.05645E+000	6.42707E-004	...........
	1106	1116.22	1.05744E+000	1.05781E+000	6.42365E-004	...........
	1107	1117.23	1.05720E+000	1.05840E+000	6.40465E-004	...........
	1108	1118.24	1.05723E+000	1.05804E+000	6.42757E-004	...........
	1109	1119.25	1.05751E+000	1.05787E+000	6.41949E-004	...........
	1110	1120.26	1.05781E+000	1.05774E+000	6.43824E-004	...........
	1111	1121.27	1.05795E+000	1.05790E+000	6.42815E-004	...........
	1112	1122.28	1.05795E+000	1.05832E+000	6.41365E-004	...........
	1113	1123.28	1.05795E+000	1.05866E+000	6.39115E-004	...........
	1114	1124.29	1.05806E+000	1.05886E+000	6.41415E-004	...........
	1115	1125.3	1.05828E+000	1.05884E+000	6.42432E-004	...........
	1116	1126.31	1.05850E+000	1.05780E+000	6.44990E-004	...........
	1117	1127.32	1.05858E+000	1.05770E+000	6.42724E-004	...........
	1118	1128.32	1.05845E+000	1.05843E+000	6.40540E-004	...........
	1119	1129.33	1.05825E+000	1.05797E+000	6.43407E-004	...........
	1120	1130.34	1.05811E+000	1.05792E+000	6.44624E-004	...........
	1121	1131.35	1.05806E+000	1.05812E+000	6.42840E-004	...........
	1122	1132.36	1.05804E+000	1.05795E+000	6.43924E-004	...........
	1123	1133.37	1.05802E+000	1.05793E+000	6.43615E-004	...........
	1124	1134.38	1.05801E+000	1.05807E+000	6.43649E-004	...........
	1125	1135.38	1.05800E+000	1.05824E+000	6.44649E-004	...........
	1126	1136.39	1.05802E+000	1.05799E+000	6.43832E-004	...........
	1127	1137.4	1.05803E+000	1.05686E+000	6.42432E-004	...........
	1128	1138.41	1.05790E+000	1.05484E+000	6.44065E-004	...........
	1129	1139.42	1.05748E+000	1.05759E+000	6.44349E-004	...........
	1130	1140.43	1.05697E+000	1.05791E+000	6.44140E-004	...........
	1131	1141.43	1.05679E+000	1.05870E+000	6.41640E-004	...........
	1132	1142.44	1.05710E+000	1.05826E+000	6.42715E-004	...........
	1133	1143.45	1.05763E+000	1.05828E+000	6.43390E-004	...........
	1134	1144.46	1.05806E+000	1.05796E+000	6.43349E-004	...........
	1135	1145.47	1.05825E+000	1.05832E+000	6.42565E-004	...........
	1136	1146.47	1.05826E+000	1.05826E+000	6.43349E-004	...........
	1137	1147.48	1.05824E+000	1.05871E+000	6.41399E-004	...........
	1138	1148.49	1.05828E+000	1.05892E+000	6.43182E-004	...........
	1139	1149.5	1.05840E+000	1.05804E+000	6.44599E-004	...........
	1140	1150.51	1.05851E+000	1.05878E+000	6.42340E-004	...........
	1141	1151.52	1.05856E+000	1.05900E+000	6.44424E-004	...........
	1142	1152.53	1.05861E+000	1.05924E+000	6.44374E-004	...........
	1143	1153.53	1.05874E+000	1.05928E+000	6.44490E-004	...........
	1144	1154.54	1.05893E+000	1.05931E+000	6.44165E-004	...........
	1145	1155.55	1.05911E+000	1.05984E+000	6.42357E-004	...........
	1146	1156.56	1.05929E+000	1.05966E+000	6.42732E-004	...........
	1147	1157.57	1.05943E+000	1.05869E+000	6.42640E-004	...........
	1148	1158.57	1.05946E+000	1.05825E+000	6.42890E-004	...........
	1149	1159.58	1.05927E+000	1.05840E+000	6.42082E-004	...........
	1150	1160.59	1.05894E+000	1.05823E+000	6.42924E-004	...........
	1151	1161.6	1.05861E+000	1.05779E+000	6.44840E-004	...........
	1152	1162.61	1.05835E+000	1.05810E+000	6.43607E-004	...........
	1153	1163.62	1.05818E+000	1.05851E+000	6.41340E-004	...........
	1154	1164.63	1.05811E+000	1.05774E+000	6.43682E-004	...........
	1155	1165.63	1.05809E+000	1.05773E+000	6.44432E-004	...........
	1156	1166.64	1.05807E+000	1.05864E+000	6.40740E-004	...........
	1157	1167.65	1.05806E+000	1.05865E+000	6.41315E-004	...........
	1158	1168.66	1.05815E+000	1.05884E+000	6.42574E-004	...........
	1159	1169.67	1.05834E+000	1.05842E+000	6.41632E-004	...........
	1160	1170.68	1.05852E+000	1.05873E+000	6.40215E-004	...........
	1161	1171.68	1.05863E+000	1.05930E+000	6.43099E-004	...........
	1162	1172.69	1.05873E+000	1.05963E+000	6.43957E-004	...........
	1163	1173.7	1.05891E+000	1.05960E+000	6.43849E-004	...........
	1164	1174.71	1.05917E+000	1.05987E+000	6.42699E-004	...........
	1165	1175.72	1.05942E+000	1.05974E+000	6.43240E-004	...........
	1166	1176.72	1.05957E+000	1.05782E+000	6.44840E-004	...........
	1167	1177.73	1.05951E+000	1.05872E+000	6.42140E-004	...........
	1168	1178.74	1.05921E+000	1.05841E+000	6.42199E-004	...........
	1169	1179.75	1.05884E+000	1.05818E+000	6.44557E-004	...........
	1170	1180.76	1.05856E+000	1.05810E+000	6.42882E-004	...........
	1171	1181.77	1.05838E+000	1.05857E+000	6.41565E-004	...........
	1172	1182.78	1.05831E+000	1.05873E+000	6.41207E-004	...........
	1173	1183.78	1.05834E+000	1.05869E+000	6.42374E-004	...........
	1174	1184.79	1.05844E+000	1.05800E+000	6.43599E-004	...........
	1175	1185.8	1.05847E+000	1.05660E+000	6.43165E-004	...........
	1176	1186.81	1.05824E+000	1.05574E+000	6.41974E-004	...........
	1177	1187.82	1.05774E+000	1.05815E+000	6.44474E-004	...........
	1178	1188.82	1.05725E+000	1.05820E+000	6.43190E-004	...........
	1179	1189.83	1.05715E+000	1.05840E+000	6.42607E-004	...........
	1180	1190.84	1.05746E+000	1.05869E+000	6.39224E-004	...........
	1181	1191.85	1.05791E+000	1.05841E+000	6.42282E-004	...........
	1182	1192.86	1.05826E+000	1.05812E+000	6.43715E-004	...........
	1183	1193.87	1.05841E+000	1.05855E+000	6.39324E-004	...........
	1184	1194.88	1.05843E+000	1.05816E+000	6.43174E-004	...........
	1185	1195.88	1.05839E+000	1.05863E+000	6.39782E-004	...........
	1186	1196.89	1.05837E+000	1.05839E+000	6.41590E-004	...........
	1187	1197.9	1.05838E+000	1.05789E+000	6.44249E-004	...........
	1188	1198.91	1.05836E+000	1.05830E+000	6.43857E-004	...........
	1189	1199.92	1.05831E+000	1.05905E+000	6.43049E-004	...........
	1190	1200.93	1.05832E+000	1.05872E+000	6.40849E-004	...........
	1191	1201.93	1.05846E+000	1.05955E+000	6.42774E-004	...........
	1192	1202.94	1.05868E+000	1.05848E+000	6.41015E-004	...........
	1193	1203.95	1.05886E+000	1.05859E+000	6.40374E-004	...........
	1194	1204.96	1.05890E+000	1.05839E+000	6.41824E-004	...........
	1195	1205.97	1.05882E+000	1.05988E+000	6.42882E-004	...........
	1196	1206.97	1.05882E+000	1.06049E+000	6.40999E-004	...........
	1197	1207.98	1.05901E+000	1.05729E+000	6.43690E-004	...........
	1198	1208.99	1.05919E+000	1.05833E+000	6.42565E-004	...........
	1199	1210	1.05905E+000	1.05782E+000	6.44149E-004	...........
	1200	1211.01	1.05865E+000	1.05796E+000	6.43774E-004	...........
	1201	1212.02	1.05827E+000	1.05806E+000	6.43882E-004	...........
	1202	1213.03	1.05806E+000	1.05843E+000	6.40749E-004	...........
	1203	1214.03	1.05802E+000	1.05826E+000	6.44365E-004	...........
	1204	1215.04	1.05811E+000	1.05873E+000	6.41990E-004	...........
	1205	1216.05	1.05826E+000	1.05926E+000	6.42924E-004	...........
	1206	1217.06	1.05846E+000	1.05845E+000	6.39615E-004	...........
	1207	1218.07	1.05865E+000	1.05852E+000	6.39049E-004	...........
	1208	1219.07	1.05872E+000	1.05859E+000	6.38207E-004	...........
	1209	1220.08	1.05870E+000	1.05877E+000	6.39165E-004	...........
	1210	1221.09	1.05860E+000	1.05628E+000	6.43099E-004	...........
	1211	1222.1	1.05839E+000	1.05802E+000	6.42499E-004	...........
	1212	1223.11	1.05807E+000	1.05891E+000	6.41499E-004	...........
	1213	1224.12	1.05788E+000	1.05836E+000	6.41474E-004	...........
	1214	1225.13	1.05800E+000	1.05925E+000	6.43107E-004	...........
	1215	1226.13	1.05831E+000	1.05917E+000	6.43699E-004	...........
	1216	1227.14	1.05865E+000	1.05956E+000	6.43240E-004	...........
	1217	1228.15	1.05896E+000	1.05905E+000	6.44057E-004	...........
	1218	1229.16	1.05917E+000	1.05932E+000	6.43599E-004	...........
	1219	1230.17	1.05925E+000	1.05878E+000	6.41632E-004	...........
	1220	1231.18	1.05922E+000	1.05893E+000	6.42432E-004	...........
	1221	1232.18	1.05913E+000	1.05909E+000	6.43665E-004	...........
	1222	1233.19	1.05900E+000	1.05688E+000	6.42357E-004	...........
	1223	1234.2	1.05877E+000	1.05825E+000	6.42899E-004	...........
	1224	1235.21	1.05846E+000	1.05943E+000	6.42949E-004	...........
	1225	1236.22	1.05830E+000	1.05951E+000	6.42540E-004	...........
	1226	1237.22	1.05849E+000	1.06021E+000	6.41032E-004	...........
	1227	1238.23	1.05894E+000	1.05989E+000	6.42457E-004	...........
	1228	1239.24	1.05944E+000	1.06067E+000	6.42199E-004	...........
	1229	1240.25	1.05984E+000	1.06005E+000	6.39674E-004	...........
	1230	1241.26	1.06006E+000	1.05802E+000	6.43874E-004	...........
	1231	1242.27	1.05996E+000	1.05808E+000	6.42074E-004	...........
	1232	1243.28	1.05952E+000	1.05851E+000	6.39657E-004	...........
	1233	1244.28	1.05894E+000	1.05820E+000	6.43024E-004	...........
	1234	1245.29	1.05850E+000	1.05695E+000	6.42232E-004	...........
	1235	1246.3	1.05818E+000	1.05779E+000	6.44190E-004	...........
	1236	1247.31	1.05793E+000	1.05871E+000	6.42574E-004	...........
	1237	1248.32	1.05784E+000	1.05917E+000	6.42957E-004	...........
	1238	1249.32	1.05802E+000	1.05880E+000	6.40449E-004	...........
	1239	1250.33	1.05839E+000	1.05926E+000	6.41574E-004	...........
	1240	1251.34	1.05872E+000	1.05871E+000	6.40449E-004	...........
	1241	1252.35	1.05890E+000	1.05826E+000	6.41399E-004	...........
	1242	1253.36	1.05891E+000	1.05940E+000	6.42149E-004	...........
	1243	1254.37	1.05885E+000	1.05861E+000	6.39682E-004	...........
	1244	1255.38	1.05881E+000	1.05851E+000	6.40107E-004	...........
	1245	1256.38	1.05878E+000	1.05868E+000	6.37982E-004	...........
	1246	1257.39	1.05872E+000	1.05778E+000	6.42724E-004	...........
	1247	1258.4	1.05855E+000	1.05649E+000	6.42140E-004	...........
	1248	1259.41	1.05823E+000	1.05823E+000	6.41415E-004	...........
	1249	1260.42	1.05789E+000	1.05886E+000	6.42032E-004	...........
	1250	1261.43	1.05778E+000	1.05848E+000	6.39932E-004	...........
	1251	1262.43	1.05798E+000	1.05884E+000	6.42040E-004	...........
	1252	1263.44	1.05829E+000	1.05843E+000	6.40790E-004	...........
	1253	1264.45	1.05854E+000	1.05941E+000	6.42640E-004	...........
	1254	1265.46	1.05870E+000	1.05913E+000	6.43257E-004	...........
	1255	1266.47	1.05886E+000	1.05944E+000	6.44082E-004	...........
	1256	1267.47	1.05905E+000	1.05978E+000	6.42682E-004	...........
	1257	1268.48	1.05925E+000	1.06007E+000	6.39082E-004	...........
	1258	1269.49	1.05946E+000	1.05909E+000	6.41324E-004	...........
	1259	1270.5	1.05959E+000	1.05862E+000	6.42165E-004	...........
	1260	1271.51	1.05954E+000	1.05989E+000	6.41674E-004	...........
	1261	1272.52	1.05940E+000	1.06006E+000	6.39915E-004	...........
	1262	1273.53	1.05942E+000	1.06104E+000	6.39282E-004	...........
	1263	1274.53	1.05969E+000	1.06071E+000	6.39524E-004	...........
	1264	1275.54	1.06012E+000	1.06149E+000	6.36924E-004	...........
	1265	1276.55	1.06051E+000	1.05894E+000	6.42390E-004	...........
	1266	1277.56	1.06063E+000	1.05890E+000	6.42290E-004	...........
	1267	1278.57	1.06035E+000	1.05881E+000	6.42065E-004	...........
	1268	1279.57	1.05981E+000	1.05938E+000	6.43732E-004	...........
	1269	1280.58	1.05933E+000	1.05882E+000	6.41032E-004	...........
	1270	1281.59	1.05905E+000	1.05713E+000	6.41090E-004	...........
	1271	1282.6	1.05876E+000	1.05578E+000	6.41524E-004	...........
	1272	1283.61	1.05826E+000	1.05933E+000	6.41990E-004	...........
	1273	1284.62	1.05779E+000	1.05937E+000	6.42682E-004	...........
	1274	1285.63	1.05779E+000	1.05922E+000	6.42432E-004	...........
	1275	1286.63	1.05826E+000	1.05983E+000	6.43382E-004	...........
	1276	1287.64	1.05885E+000	1.05989E+000	6.41182E-004	...........
	1277	1288.65	1.05933E+000	1.06059E+000	6.41140E-004	...........
	1278	1289.66	1.05971E+000	1.06055E+000	6.39749E-004	...........
	1279	1290.67	1.06002E+000	1.05970E+000	6.42090E-004	...........
	1280	1291.68	1.06019E+000	1.05919E+000	6.42024E-004	...........
	1281	1292.68	1.06011E+000	1.05915E+000	6.42257E-004	...........
	1282	1293.69	1.05981E+000	1.05751E+000	6.41340E-004	...........
	1283	1294.7	1.05934E+000	1.05860E+000	6.40774E-004	...........
	1284	1295.71	1.05887E+000	1.05910E+000	6.42049E-004	...........
	1285	1296.72	1.05860E+000	1.05946E+000	6.42224E-004	...........
	1286	1297.72	1.05865E+000	1.05980E+000	6.41282E-004	...........
	1287	1298.73	1.05894E+000	1.05953E+000	6.42224E-004	...........
	1288	1299.74	1.05927E+000	1.05949E+000	6.42974E-004	...........
	1289	1300.75	1.05949E+000	1.05976E+000	6.42157E-004	...........
	1290	1301.76	1.05958E+000	1.05949E+000	6.43574E-004	...........
	1291	1302.77	1.05961E+000	1.05982E+000	6.43090E-004	...........
	1292	1303.78	1.05963E+000	1.05984E+000	6.43390E-004	...........
	1293	1304.78	1.05968E+000	1.06001E+000	6.40549E-004	...........
	1294	1305.79	1.05976E+000	1.06007E+000	6.40132E-004	...........
	1295	1306.8	1.05984E+000	1.05905E+000	6.42815E-004	...........
	1296	1307.81	1.05982E+000	1.05850E+000	6.42557E-004	...........
	1297	1308.82	1.05964E+000	1.05974E+000	6.43499E-004	...........
	1298	1309.82	1.05941E+000	1.06053E+000	6.42190E-004	...........
	1299	1310.83	1.05940E+000	1.06101E+000	6.42557E-004	...........
	1300	1311.84	1.05968E+000	1.05890E+000	6.42207E-004	...........
	1301	1312.85	1.05996E+000	1.05918E+000	6.44190E-004	...........
	1302	1313.86	1.05996E+000	1.05937E+000	6.44399E-004	...........
	1303	1314.87	1.05971E+000	1.05932E+000	6.43940E-004	...........
	1304	1315.88	1.05946E+000	1.05933E+000	6.43382E-004	...........
	1305	1316.88	1.05935E+000	1.05972E+000	6.42265E-004	...........
	1306	1317.89	1.05935E+000	1.05980E+000	6.41690E-004	...........
	1307	1318.9	1.05941E+000	1.05768E+000	6.42724E-004	...........
	1308	1319.91	1.05936E+000	1.05889E+000	6.41507E-004	...........
	1309	1320.92	1.05914E+000	1.05941E+000	6.42690E-004	...........
	1310	1321.93	1.05894E+000	1.05964E+000	6.42249E-004	...........
	1311	1322.93	1.05898E+000	1.06037E+000	6.39574E-004	...........
	1312	1323.94	1.05925E+000	1.05971E+000	6.43174E-004	...........
	1313	1324.95	1.05959E+000	1.06013E+000	6.39365E-004	...........
	1314	1325.96	1.05984E+000	1.05998E+000	6.41215E-004	...........
	1315	1326.97	1.05996E+000	1.05949E+000	6.42949E-004	...........
	1316	1327.97	1.05996E+000	1.06024E+000	6.39990E-004	...........
	1317	1328.98	1.05992E+000	1.05980E+000	6.42882E-004	...........
	1318	1329.99	1.05990E+000	1.06009E+000	6.39590E-004	...........
	1319	1331	1.05994E+000	1.06105E+000	6.42940E-004	...........
	1320	1332.01	1.06004E+000	1.05890E+000	6.42099E-004	...........
	1321	1333.02	1.06007E+000	1.05805E+000	6.42399E-004	...........
	1322	1334.03	1.05986E+000	1.05994E+000	6.41515E-004	...........
	1323	1335.03	1.05949E+000	1.05932E+000	6.43215E-004	...........
	1324	1336.04	1.05926E+000	1.05956E+000	6.43649E-004	...........
	1325	1337.05	1.05927E+000	1.05997E+000	6.40099E-004	...........
	1326	1338.06	1.05941E+000	1.05952E+000	6.43040E-004	...........
	1327	1339.07	1.05957E+000	1.05995E+000	6.41032E-004	...........
	1328	1340.07	1.05968E+000	1.05970E+000	6.41099E-004	...........
	1329	1341.08	1.05974E+000	1.05978E+000	6.41924E-004	...........
	1330	1342.09	1.05977E+000	1.05995E+000	6.40115E-004	...........
	1331	1343.1	1.05982E+000	1.06107E+000	6.40682E-004	...........
	1332	1344.11	1.05994E+000	1.05992E+000	6.40924E-004	...........
	1333	1345.12	1.06013E+000	1.06016E+000	6.39507E-004	...........
	1334	1346.13	1.06024E+000	1.05947E+000	6.42515E-004	...........
	1335	1347.13	1.06017E+000	1.05927E+000	6.42082E-004	...........
	1336	1348.14	1.05995E+000	1.05906E+000	6.41890E-004	...........
	1337	1349.15	1.05966E+000	1.05932E+000	6.41549E-004	...........
	1338	1350.16	1.05943E+000	1.06013E+000	6.37274E-004	...........
	1339	1351.17	1.05938E+000	1.05998E+000	6.39865E-004	...........
	1340	1352.18	1.05952E+000	1.06021E+000	6.36532E-004	...........
	1341	1353.18	1.05976E+000	1.06047E+000	6.37207E-004	...........
	1342	1354.19	1.05999E+000	1.06011E+000	6.36915E-004	...........
	1343	1355.2	1.06016E+000	1.06031E+000	6.36815E-004	...........
	1344	1356.21	1.06020E+000	1.05776E+000	6.43865E-004	...........
	1345	1357.22	1.05996E+000	1.05700E+000	6.42465E-004	...........
	1346	1358.22	1.05937E+000	1.05908E+000	6.42465E-004	...........
	1347	1359.23	1.05873E+000	1.05979E+000	6.41557E-004	...........
	1348	1360.24	1.05847E+000	1.05920E+000	6.42507E-004	...........
	1349	1361.25	1.05868E+000	1.05974E+000	6.41649E-004	...........
	1350	1362.26	1.05906E+000	1.05979E+000	6.42207E-004	...........
	1351	1363.27	1.05940E+000	1.06019E+000	6.36832E-004	...........
	1352	1364.28	1.05967E+000	1.06117E+000	6.39082E-004	...........
	1353	1365.28	1.05995E+000	1.06010E+000	6.37782E-004	...........
	1354	1366.29	1.06022E+000	1.05979E+000	6.41132E-004	...........
	1355	1367.3	1.06034E+000	1.06008E+000	6.38365E-004	...........
	1356	1368.31	1.06029E+000	1.06099E+000	6.39949E-004	...........
	1357	1369.32	1.06022E+000	1.05926E+000	6.42340E-004	...........
	1358	1370.32	1.06018E+000	1.05926E+000	6.42815E-004	...........
	1359	1371.33	1.06004E+000	1.06001E+000	6.38099E-004	...........
	1360	1372.34	1.05984E+000	1.05957E+000	6.43449E-004	...........
	1361	1373.35	1.05972E+000	1.06049E+000	6.39482E-004	...........
	1362	1374.36	1.05976E+000	1.06079E+000	6.42832E-004	...........
	1363	1375.37	1.05995E+000	1.06003E+000	6.40999E-004	...........
	1364	1376.38	1.06017E+000	1.05983E+000	6.40557E-004	...........
	1365	1377.38	1.06028E+000	1.06111E+000	6.38374E-004	...........
	1366	1378.39	1.06033E+000	1.06144E+000	6.38490E-004	...........
	1367	1379.4	1.06050E+000	1.06190E+000	6.37965E-004	...........
	1368	1380.41	1.06082E+000	1.05976E+000	6.42790E-004	...........
	1369	1381.42	1.06101E+000	1.05893E+000	6.40532E-004	...........
	1370	1382.43	1.06081E+000	1.05954E+000	6.43507E-004	...........
	1371	1383.43	1.06029E+000	1.05977E+000	6.41482E-004	...........
	1372	1384.44	1.05982E+000	1.05979E+000	6.41640E-004	...........
	1373	1385.45	1.05962E+000	1.06021E+000	6.38307E-004	...........
	1374	1386.46	1.05967E+000	1.06005E+000	6.38815E-004	...........
	1375	1387.47	1.05982E+000	1.05984E+000	6.40757E-004	...........
	1376	1388.47	1.05995E+000	1.06047E+000	6.39490E-004	...........
	1377	1389.48	1.06004E+000	1.06011E+000	6.39332E-004	...........
	1378	1390.49	1.06011E+000	1.06048E+000	6.38657E-004	...........
	1379	1391.5	1.06019E+000	1.05999E+000	6.37940E-004	...........
	1380	1392.51	1.06024E+000	1.06054E+000	6.38732E-004	...........
	1381	1393.52	1.06027E+000	1.06037E+000	6.38565E-004	...........
	1382	1394.53	1.06027E+000	1.05895E+000	6.40182E-004	...........
	1383	1395.53	1.06014E+000	1.05721E+000	6.42165E-004	...........
	1384	1396.54	1.05973E+000	1.06004E+000	6.38957E-004	...........
	1385	1397.55	1.05925E+000	1.06043E+000	6.39799E-004	...........
	1386	1398.56	1.05911E+000	1.06041E+000	6.38274E-004	...........
	1387	1399.57	1.05942E+000	1.06040E+000	6.38024E-004	...........
	1388	1400.57	1.05988E+000	1.06049E+000	6.39824E-004	...........
	1389	1401.58	1.06023E+000	1.06039E+000	6.39015E-004	...........
	1390	1402.59	1.06039E+000	1.06028E+000	6.38282E-004	...........
	1391	1403.6	1.06044E+000	1.06081E+000	6.40557E-004	...........
	1392	1404.61	1.06046E+000	1.06103E+000	6.40107E-004	...........
	1393	1405.62	1.06055E+000	1.06085E+000	6.40565E-004	...........
	1394	1406.63	1.06067E+000	1.05977E+000	6.40715E-004	...........
	1395	1407.63	1.06068E+000	1.05979E+000	6.40007E-004	...........
	1396	1408.64	1.06052E+000	1.06070E+000	6.39757E-004	...........
	1397	1409.65	1.06033E+000	1.06125E+000	6.40107E-004	...........
	1398	1410.66	1.06035E+000	1.06175E+000	6.35057E-004	...........
	1399	1411.67	1.06064E+000	1.06164E+000	6.37874E-004	...........
	1400	1412.68	1.06105E+000	1.06183E+000	6.35257E-004	...........
	1401	1413.68	1.06142E+000	1.06239E+000	6.38540E-004	...........
	1402	1414.69	1.06167E+000	1.06048E+000	6.39082E-004	...........
	1403	1415.7	1.06173E+000	1.06030E+000	6.37574E-004	...........
	1404	1416.71	1.06150E+000	1.06027E+000	6.37765E-004	...........
	1405	1417.72	1.06106E+000	1.06023E+000	6.38099E-004	...........
	1406	1418.72	1.06064E+000	1.05986E+000	6.41857E-004	...........
	1407	1419.73	1.06031E+000	1.05873E+000	6.40590E-004	...........
	1408	1420.74	1.06000E+000	1.05884E+000	6.41874E-004	...........
	1409	1421.75	1.05965E+000	1.06036E+000	6.39932E-004	...........
	1410	1422.76	1.05944E+000	1.06089E+000	6.41107E-004	...........
	1411	1423.77	1.05955E+000	1.06007E+000	6.39682E-004	...........
	1412	1424.78	1.05989E+000	1.06056E+000	6.39732E-004	...........
	1413	1425.78	1.06021E+000	1.06043E+000	6.36574E-004	...........
	1414	1426.79	1.06038E+000	1.06040E+000	6.38440E-004	...........
	1415	1427.8	1.06045E+000	1.06106E+000	6.41974E-004	...........
	1416	1428.81	1.06050E+000	1.06023E+000	6.37890E-004	...........
	1417	1429.82	1.06055E+000	1.06026E+000	6.39657E-004	...........
	1418	1430.82	1.06055E+000	1.06070E+000	6.41465E-004	...........
	1419	1431.83	1.06051E+000	1.06060E+000	6.39265E-004	...........
	1420	1432.84	1.06047E+000	1.05960E+000	6.42865E-004	...........
	1421	1433.85	1.06038E+000	1.05820E+000	6.42982E-004	...........
	1422	1434.86	1.06011E+000	1.06084E+000	6.41440E-004	...........
	1423	1435.87	1.05982E+000	1.06120E+000	6.40949E-004	...........
	1424	1436.88	1.05982E+000	1.06058E+000	6.39782E-004	...........
	1425	1437.88	1.06015E+000	1.06107E+000	6.41982E-004	...........
	1426	1438.89	1.06054E+000	1.06111E+000	6.41074E-004	...........
	1427	1439.9	1.06081E+000	1.06126E+000	6.41332E-004	...........
	1428	1440.91	1.06098E+000	1.06063E+000	6.38957E-004	...........
	1429	1441.92	1.06107E+000	1.06232E+000	6.36790E-004	...........
	1430	1442.93	1.06118E+000	1.06208E+000	6.34840E-004	...........
	1431	1443.93	1.06141E+000	1.06296E+000	6.35490E-004	...........
	1432	1444.94	1.06179E+000	1.06273E+000	6.35432E-004	...........
	1433	1445.95	1.06215E+000	1.06028E+000	6.36882E-004	...........
	1434	1446.96	1.06223E+000	1.06028E+000	6.37357E-004	...........
	1435	1447.97	1.06190E+000	1.06217E+000	6.35190E-004	...........
	1436	1448.97	1.06147E+000	1.06263E+000	6.34199E-004	...........
	1437	1449.98	1.06135E+000	1.06083E+000	6.38157E-004	...........
	1438	1450.99	1.06151E+000	1.06156E+000	6.33990E-004	...........
	1439	1452	1.06161E+000	1.06132E+000	6.38165E-004	...........
	1440	1453.01	1.06154E+000	1.06018E+000	6.34307E-004	...........
	1441	1454.02	1.06132E+000	1.05985E+000	6.39207E-004	...........
	1442	1455.03	1.06097E+000	1.06062E+000	6.37632E-004	...........
	1443	1456.03	1.06061E+000	1.06039E+000	6.34049E-004	...........
	1444	1457.04	1.06038E+000	1.05983E+000	6.38924E-004	...........
	1445	1458.05	1.06027E+000	1.05958E+000	6.40374E-004	...........
	1446	1459.06	1.06014E+000	1.05944E+000	6.40732E-004	...........
	1447	1460.07	1.05996E+000	1.06054E+000	6.37799E-004	...........
	1448	1461.07	1.05985E+000	1.06034E+000	6.38115E-004	...........
	1449	1462.08	1.05990E+000	1.05999E+000	6.38274E-004	...........
	1450	1463.09	1.06003E+000	1.05981E+000	6.39899E-004	...........
	1451	1464.1	1.06010E+000	1.06021E+000	6.38482E-004	...........
	1452	1465.11	1.06009E+000	1.06038E+000	6.38224E-004	...........
	1453	1466.12	1.06010E+000	1.06033E+000	6.37599E-004	...........
	1454	1467.13	1.06017E+000	1.06090E+000	6.39399E-004	...........
	1455	1468.13	1.06031E+000	1.06063E+000	6.39590E-004	...........
	1456	1469.14	1.06046E+000	1.06038E+000	6.38765E-004	...........
	1457	1470.15	1.06057E+000	1.06086E+000	6.40315E-004	...........
	1458	1471.16	1.06059E+000	1.05949E+000	6.42532E-004	...........
	1459	1472.17	1.06050E+000	1.05959E+000	6.42449E-004	...........
	1460	1473.18	1.06029E+000	1.06002E+000	6.39282E-004	...........
	1461	1474.18	1.06004E+000	1.06018E+000	6.37557E-004	...........
	1462	1475.19	1.05992E+000	1.06037E+000	6.38057E-004	...........
	1463	1476.2	1.05995E+000	1.05978E+000	6.40165E-004	...........
	1464	1477.21	1.06004E+000	1.05991E+000	6.40965E-004	...........
	1465	1478.22	1.06006E+000	1.06023E+000	6.37407E-004	...........
	1466	1479.22	1.06005E+000	1.06058E+000	6.39815E-004	...........
	1467	1480.23	1.06009E+000	1.06012E+000	6.38757E-004	...........
	1468	1481.24	1.06019E+000	1.06037E+000	6.35815E-004	...........
	1469	1482.25	1.06028E+000	1.06108E+000	6.39590E-004	...........
	1470	1483.26	1.06038E+000	1.06042E+000	6.37207E-004	...........
	1471	1484.27	1.06050E+000	1.06045E+000	6.40299E-004	...........
	1472	1485.28	1.06060E+000	1.06195E+000	6.34274E-004	...........
	1473	1486.28	1.06068E+000	1.05854E+000	6.41232E-004	...........
	1474	1487.29	1.06063E+000	1.05905E+000	6.39949E-004	...........
	1475	1488.3	1.06031E+000	1.05915E+000	6.42924E-004	...........
	1476	1489.31	1.05981E+000	1.05978E+000	6.38982E-004	...........
	1477	1490.32	1.05944E+000	1.05959E+000	6.40607E-004	...........
	1478	1491.32	1.05935E+000	1.05945E+000	6.40790E-004	...........
	1479	1492.33	1.05941E+000	1.05937E+000	6.41099E-004	...........
	1480	1493.34	1.05946E+000	1.05889E+000	6.41065E-004	...........
	1481	1494.35	1.05943E+000	1.05996E+000	6.39757E-004	...........
	1482	1495.36	1.05936E+000	1.05794E+000	6.42599E-004	...........
	1483	1496.37	1.05921E+000	1.05745E+000	6.42032E-004	...........
	1484	1497.38	1.05894E+000	1.05989E+000	6.40399E-004	...........
	1485	1498.38	1.05869E+000	1.06005E+000	6.38465E-004	...........
	1486	1499.39	1.05876E+000	1.06030E+000	6.38249E-004	...........
	1487	1500.4	1.05917E+000	1.05928E+000	6.42949E-004	...........
	1488	1501.41	1.05958E+000	1.05949E+000	6.41065E-004	...........
	1489	1502.42	1.05976E+000	1.05996E+000	6.39265E-004	...........
	1490	1503.43	1.05974E+000	1.05955E+000	6.41482E-004	...........
	1491	1504.43	1.05971E+000	1.05997E+000	6.39965E-004	...........
	1492	1505.44	1.05970E+000	1.05912E+000	6.42357E-004	...........
	1493	1506.45	1.05968E+000	1.05962E+000	6.42249E-004	...........
	1494	1507.46	1.05958E+000	1.05761E+000	6.43015E-004	...........
	1495	1508.47	1.05933E+000	1.05815E+000	6.38374E-004	...........
	1496	1509.47	1.05894E+000	1.05884E+000	6.41090E-004	...........
	1497	1510.48	1.05861E+000	1.05946E+000	6.41374E-004	...........
	1498	1511.49	1.05855E+000	1.05970E+000	6.41865E-004	...........
	1499	1512.5	1.05879E+000	1.05925E+000	6.41565E-004	...........
	1500	1513.51	1.05912E+000	1.05958E+000	6.40565E-004	...........
	1501	1514.52	1.05935E+000	1.05974E+000	6.41115E-004	...........
	1502	1515.53	1.05949E+000	1.05994E+000	6.39307E-004	...........
	1503	1516.53	1.05960E+000	1.05985E+000	6.41199E-004	...........
	1504	1517.54	1.05972E+000	1.06005E+000	6.37515E-004	...........
	1505	1518.55	1.05983E+000	1.06037E+000	6.37099E-004	...........
	1506	1519.56	1.05992E+000	1.05865E+000	6.41624E-004	...........
	1507	1520.57	1.05987E+000	1.05805E+000	6.42674E-004	...........
	1508	1521.57	1.05958E+000	1.05877E+000	6.39015E-004	...........
	1509	1522.58	1.05914E+000	1.05899E+000	6.43532E-004	...........
	1510	1523.59	1.05882E+000	1.05932E+000	6.42157E-004	...........
	1511	1524.6	1.05877E+000	1.05956E+000	6.41999E-004	...........
	1512	1525.61	1.05894E+000	1.05913E+000	6.41015E-004	...........
	1513	1526.62	1.05915E+000	1.05981E+000	6.41390E-004	...........
	1514	1527.63	1.05932E+000	1.05947E+000	6.42357E-004	...........
	1515	1528.63	1.05943E+000	1.05940E+000	6.42932E-004	...........
	1516	1529.64	1.05951E+000	1.06037E+000	6.38824E-004	...........
	1517	1530.65	1.05960E+000	1.05994E+000	6.39782E-004	...........
	1518	1531.66	1.05973E+000	1.05958E+000	6.41399E-004	...........
	1519	1532.67	1.05984E+000	1.05978E+000	6.42749E-004	...........
	1520	1533.68	1.05986E+000	1.05990E+000	6.41140E-004	...........
	1521	1534.68	1.05982E+000	1.05921E+000	6.40624E-004	...........
	1522	1535.69	1.05976E+000	1.05997E+000	6.40132E-004	...........
	1523	1536.7	1.05969E+000	1.05917E+000	6.42899E-004	...........
	1524	1537.71	1.05964E+000	1.06049E+000	6.38724E-004	...........
	1525	1538.72	1.05964E+000	1.05926E+000	6.43890E-004	...........
	1526	1539.72	1.05968E+000	1.05922E+000	6.43065E-004	...........
	1527	1540.73	1.05966E+000	1.05914E+000	6.43032E-004	...........
	1528	1541.74	1.05955E+000	1.06031E+000	6.40074E-004	...........
	1529	1542.75	1.05950E+000	1.06037E+000	6.37915E-004	...........
